# File created by shivutils (I.Shivvers)
# Blotched regions marked with a #.
# wl(A)   flm    er(optional)
3422.00   0.10359708
3424.00   0.71466757
3426.00   0.64243804
3428.00   0.36691383
3430.00   0.15849484
3432.00   0.28100689
3434.00   0.32794204
3436.00   0.45848450
3438.00   0.32252853
3440.00   0.69635039
3442.00   0.28588132
3444.00   0.44311806
3446.00   0.34020927
3448.00   0.53663745
3450.00   0.43491373
3452.00   0.48155282
3454.00   0.40918752
3456.00   0.50258500
3458.00   0.45442698
3460.00   0.38678885
3462.00   0.45452329
3464.00   0.36264630
3466.00   0.44845029
3468.00   0.46017296
3470.00   0.62227384
3472.00   0.25267701
3474.00   0.43356665
3476.00   0.25388041
3478.00   0.30516034
3480.00   0.30485234
3482.00   0.52117169
3484.00   0.49389277
3486.00   0.33020181
3488.00   0.76380967
3490.00   0.45437377
3492.00   0.30524554
3494.00   0.34646658
3496.00   0.49954135
3498.00   0.44432993
3500.00   0.16899510
3502.00   0.27900767
3504.00   0.60584436
3506.00   0.52346913
3508.00   0.58341120
3510.00   0.37108486
3512.00   0.44632237
3514.00   0.42679210
3516.00   0.43197122
3518.00   0.37687632
3520.00   0.74996009
3522.00   0.66930909
3524.00   0.59963815
3526.00   0.75797364
3528.00   0.54834545
3530.00   0.54622801
3532.00   0.68592457
3534.00   0.40675378
3536.00   0.40991774
3538.00   0.66613116
3540.00   0.49764285
3542.00   0.41871834
3544.00   0.39922526
3546.00   0.76996431
3548.00   0.33131563
3550.00   0.38699722
3552.00   0.40066792
3554.00   0.44127440
3556.00   0.49771852
3558.00   0.38019676
3560.00   0.34070377
3562.00   0.59908788
3564.00   0.62755835
3566.00   0.40131632
3568.00   0.57080667
3570.00   0.28530666
3572.00   0.38117331
3574.00   0.76718308
3576.00   0.44927373
3578.00   0.51412865
3580.00   0.49548634
3582.00   0.29845525
3584.00   0.57453480
3586.00   0.42877924
3588.00   0.39286202
3590.00   0.37610962
3592.00   0.68725772
3594.00   0.59861918
3596.00   0.56904759
3598.00   0.48627525
3600.00   0.54316778
3602.00   0.54113919
3604.00   0.47438737
3606.00   0.40600337
3608.00   0.52203897
3610.00   0.45430310
3612.00   0.55081369
3614.00   0.49647853
3616.00   0.45585572
3618.00   0.61001844
3620.00   0.46605150
3622.00   0.34501797
3624.00   0.59997456
3626.00   0.59916141
3628.00   0.47751157
3630.00   0.52576685
3632.00   0.38314746
3634.00   0.67750555
3636.00   0.79902669
3638.00   0.66548241
3640.00   0.36743561
3642.00   0.54985092
3644.00   0.75231683
3646.00   0.69073425
3648.00   0.64494552
3650.00   0.81844792
3652.00   0.76368937
3654.00   0.57335917
3656.00   0.46322828
3658.00   0.59237041
3660.00   0.68304362
3662.00   0.48511940
3664.00   0.59388159
3666.00   0.62772340
3668.00   0.68542374
3670.00   0.71607388
3672.00   0.65759160
3674.00   0.58058339
3676.00   0.70235176
3678.00   0.55149539
3680.00   0.58522435
3682.00   0.60844830
3684.00   0.49599648
3686.00   0.52320508
3688.00   0.59343334
3690.00   0.55975319
3692.00   0.63580534
3694.00   0.73183961
3696.00   0.67656026
3698.00   0.63069318
3700.00   0.54934803
3702.00   0.74601730
3704.00   0.73098315
3706.00   0.68735906
3708.00   0.66309781
3710.00   0.82826801
3712.00   0.71491491
3714.00   0.74431064
3716.00   0.78411777
3718.00   0.61893149
3720.00   0.76199598
3722.00   0.73738454
3724.00   0.71010278
3726.00   0.81392231
3728.00   0.68522588
3730.00   0.65625057
3732.00   0.62325506
3734.00   0.62698599
3736.00   0.61969944
3738.00   0.87544985
3740.00   0.78108291
3742.00   0.74619152
3744.00   0.62213195
3746.00   0.73706114
3748.00   0.81776407
3750.00   0.72106372
3752.00   0.62850376
3754.00   0.62438938
3756.00   0.68201283
3758.00   0.72200199
3760.00   0.73813285
3762.00   0.72357920
3764.00   0.69334720
3766.00   0.74360637
3768.00   0.59539429
3770.00   0.56055849
3772.00   0.71124038
3774.00   0.74444830
3776.00   0.72877490
3778.00   0.62917170
3780.00   0.70313652
3782.00   0.71609202
3784.00   0.61502933
3786.00   0.70529973
3788.00   0.72407095
3790.00   0.72242142
3792.00   0.67445896
3794.00   0.69183620
3796.00   0.68725297
3798.00   0.75190382
3800.00   0.76496892
3802.00   0.71100830
3804.00   0.77476855
3806.00   0.78006917
3808.00   0.74757388
3810.00   0.81154130
3812.00   0.73282768
3814.00   0.82340954
3816.00   0.85610804
3818.00   0.87595505
3820.00   0.84997264
3822.00   0.80672956
3824.00   0.88783948
3826.00   0.89877119
3828.00   0.90677336
3830.00   0.85638160
3832.00   0.86874658
3834.00   0.93086050
3836.00   0.84564877
3838.00   0.74999344
3840.00   0.85947160
3842.00   0.77373972
3844.00   0.80820767
3846.00   0.83495864
3848.00   0.82623016
3850.00   0.75524780
3852.00   0.72075886
3854.00   0.68039553
3856.00   0.68285800
3858.00   0.72582717
3860.00   0.63623338
3862.00   0.64241222
3864.00   0.58516855
3866.00   0.62130020
3868.00   0.62921506
3870.00   0.63037619
3872.00   0.65542078
3874.00   0.69569441
3876.00   0.66288884
3878.00   0.57304906
3880.00   0.52327483
3882.00   0.63617629
3884.00   0.68046442
3886.00   0.81815654
3888.00   0.83124489
3890.00   0.65029636
3892.00   0.69182450
3894.00   0.64418097
3896.00   0.61586966
3898.00   0.60681984
3900.00   0.68432759
3902.00   0.78017324
3904.00   0.73361737
3906.00   0.83371359
3908.00   0.73128399
3910.00   0.65321472
3912.00   0.63097169
3914.00   0.63774383
3916.00   0.74581400
3918.00   0.65994443
3920.00   0.61136312
3922.00   0.71210623
3924.00   0.63353289
3926.00   0.63449718
3928.00   0.64106405
3930.00   0.61146449
3932.00   0.61222767
3934.00   0.63770887
3936.00   0.74939344
3938.00   0.70464760
3940.00   0.63231371
3942.00   0.70713546
3944.00   0.61928165
3946.00   0.70136956
3948.00   0.63064407
3950.00   0.59707022
3952.00   0.61112065
3954.00   0.68462141
3956.00   0.59733892
3958.00   0.52113051
3960.00   0.52825659
3962.00   0.56678617
3964.00   0.57379833
3966.00   0.61587002
3968.00   0.56364526
3970.00   0.65817090
3972.00   0.63323935
3974.00   0.62514499
3976.00   0.62627061
3978.00   0.67280116
3980.00   0.63574467
3982.00   0.59380452
3984.00   0.52063363
3986.00   0.65891674
3988.00   0.67581206
3990.00   0.59168065
3992.00   0.59340781
3994.00   0.70963799
3996.00   0.68447244
3998.00   0.58139885
4000.00   0.67435637
4002.00   0.69647282
4004.00   0.70290965
4006.00   0.71245502
4008.00   0.71608446
4010.00   0.72929968
4012.00   0.76877950
4014.00   0.78840127
4016.00   0.76197827
4018.00   0.88028255
4020.00   0.89587308
4022.00   0.85842671
4024.00   0.78119965
4026.00   0.86169871
4028.00   0.91459688
4030.00   0.99507132
4032.00   0.97368712
4034.00   1.04429961
4036.00   0.88175263
4038.00   0.88663264
4040.00   0.89817803
4042.00   1.00099741
4044.00   1.05208510
4046.00   1.18724856
4048.00   0.88990726
4050.00   1.02110094
4052.00   1.00080238
4054.00   0.96430340
4056.00   1.13715202
4058.00   1.09633912
4060.00   1.02682002
4062.00   1.10817774
4064.00   1.20266436
4066.00   1.09047229
4068.00   1.12747657
4070.00   1.28145966
4072.00   1.11548412
4074.00   1.08515061
4076.00   1.21879357
4078.00   1.15689127
4080.00   1.11058613
4082.00   1.11620076
4084.00   1.26336296
4086.00   1.19701016
4088.00   1.13173354
4090.00   1.11650855
4092.00   1.18133892
4094.00   1.20654586
4096.00   1.09579656
4098.00   1.21406948
4100.00   0.97980754
4102.00   0.82422531
4104.00   0.86283701
4106.00   1.14224847
4108.00   1.14523074
4110.00   1.21795409
4112.00   1.12757236
4114.00   1.17988439
4116.00   1.21823666
4118.00   1.17718470
4120.00   1.20873121
4122.00   1.15046432
4124.00   1.08985881
4126.00   1.09690909
4128.00   1.11522990
4130.00   1.15157349
4132.00   0.99922244
4134.00   0.96936241
4136.00   0.90855259
4138.00   0.89181447
4140.00   0.87576634
4142.00   0.90710828
4144.00   0.97641447
4146.00   0.93729681
4148.00   0.92549286
4150.00   1.01252650
4152.00   0.92804697
4154.00   0.88508368
4156.00   0.93946753
4158.00   0.92835609
4160.00   0.82439356
4162.00   0.96217406
4164.00   0.97746316
4166.00   0.93267664
4168.00   0.97519016
4170.00   0.92867795
4172.00   0.93035245
4174.00   0.88227388
4176.00   0.86847322
4178.00   0.88506922
4180.00   0.88261222
4182.00   0.81168423
4184.00   0.88509817
4186.00   0.91364652
4188.00   0.92159293
4190.00   0.93175963
4192.00   0.92803297
4194.00   0.95816734
4196.00   0.91921565
4198.00   0.95511449
4200.00   1.01150724
4202.00   1.01074130
4204.00   0.94203756
4206.00   1.01194595
4208.00   0.96145414
4210.00   1.06902516
4212.00   0.99953610
4214.00   0.97093474
4216.00   0.97428848
4218.00   0.98627940
4220.00   1.03299523
4222.00   1.11469217
4224.00   1.10083773
4226.00   1.10997534
4228.00   1.03916115
4230.00   1.05873058
4232.00   1.05962394
4234.00   1.08447493
4236.00   1.00763671
4238.00   1.01451060
4240.00   0.99739157
4242.00   1.02418497
4244.00   0.97623673
4246.00   0.95917042
4248.00   1.03041357
4250.00   1.05219209
4252.00   1.03279545
4254.00   0.99749686
4256.00   0.97780866
4258.00   1.05922865
4260.00   1.04072600
4262.00   1.05300630
4264.00   1.05224444
4266.00   1.04980627
4268.00   1.03642549
4270.00   1.03338980
4272.00   1.01203503
4274.00   1.04202368
4276.00   0.94942070
4278.00   0.99149803
4280.00   0.97360544
4282.00   0.99190841
4284.00   1.03730210
4286.00   0.97305031
4288.00   1.00764439
4290.00   1.00712390
4292.00   1.01245387
4294.00   1.04151255
4296.00   1.03886621
4298.00   1.04118562
4300.00   0.99479804
4302.00   1.09507986
4304.00   1.06891412
4306.00   1.06721639
4308.00   1.02675573
4310.00   1.01702036
4312.00   1.01864584
4314.00   0.99434428
4316.00   1.10896013
4318.00   1.04402335
4320.00   1.01551285
4322.00   1.06383618
4324.00   1.12717388
4326.00   1.08239745
4328.00   1.09378033
4330.00   1.08472255
4332.00   1.14069532
4334.00   1.09789789
4336.00   1.08876968
4338.00   1.09489701
4340.00   1.19056704
4342.00   1.12652796
4344.00   1.01442714
4346.00   1.13321458
4348.00   1.18250369
4350.00   1.17555081
4352.00   1.11123474
4354.00   1.17108516
4356.00   1.32947596
4358.00   1.03972941
4360.00   1.01922488
4362.00   1.10951341
4364.00   1.12292827
4366.00   1.12204649
4368.00   1.06962841
4370.00   1.16319980
4372.00   1.19513050
4374.00   1.05792664
4376.00   1.03002229
4378.00   1.04148789
4380.00   1.10150817
4382.00   1.05650004
4384.00   1.09906629
4386.00   1.17456997
4388.00   1.08703707
4390.00   1.04502585
4392.00   1.04714865
4394.00   0.99786474
4396.00   1.09640466
4398.00   1.01992364
4400.00   1.04397632
4402.00   1.10928524
4404.00   1.04193149
4406.00   0.97658932
4408.00   0.96148739
4410.00   1.02424793
4412.00   1.04762385
4414.00   1.04421894
4416.00   1.06623028
4418.00   1.06884428
4420.00   1.01732403
4422.00   0.99673849
4424.00   1.02684670
4426.00   1.02275942
4428.00   1.00471105
4430.00   0.93880799
4432.00   1.01710938
4434.00   0.90955983
4436.00   0.98368778
4438.00   0.91180762
4440.00   0.99045877
4442.00   0.97756684
4444.00   0.91453699
4446.00   1.00599678
4448.00   0.94431447
4450.00   0.92925577
4452.00   0.96446613
4454.00   0.97300174
4456.00   0.98793671
4458.00   1.04837645
4460.00   0.94788777
4462.00   1.03184607
4464.00   0.92876225
4466.00   0.89862606
4468.00   0.88335666
4470.00   0.87025311
4472.00   0.85322774
4474.00   0.86531615
4476.00   0.87255461
4478.00   0.84480911
4480.00   0.94288103
4482.00   0.90459583
4484.00   0.83813593
4486.00   0.83423697
4488.00   0.83594929
4490.00   0.78958144
4492.00   0.83460200
4494.00   0.79154243
4496.00   0.82072256
4498.00   0.87229606
4500.00   0.84942261
4502.00   0.91124128
4504.00   0.85939753
4506.00   0.89412483
4508.00   0.87427202
4510.00   0.82845790
4512.00   0.80663384
4514.00   0.80285997
4516.00   0.88565169
4518.00   0.86902699
4520.00   0.90739330
4522.00   0.81019509
4524.00   0.86875706
4526.00   0.81523067
4528.00   0.80875428
4530.00   0.87647309
4532.00   0.82783471
4534.00   0.85190747
4536.00   0.83762620
4538.00   0.83656459
4540.00   0.79893153
4542.00   0.82064200
4544.00   0.82177247
4546.00   0.85497536
4548.00   0.85815168
4550.00   0.79147164
4552.00   0.84115124
4554.00   0.86207320
4556.00   0.84426285
4558.00   0.75136773
4560.00   0.78637261
4562.00   0.83348528
4564.00   0.83292027
4566.00   0.81305685
4568.00   0.82620072
4570.00   0.77506561
4572.00   0.76742515
4574.00   0.71018691
4576.00   0.79174388
4578.00   0.79689309
4580.00   0.84230577
4582.00   0.78618648
4584.00   0.83482838
4586.00   0.78497321
4588.00   0.77319015
4590.00   0.76938547
4592.00   0.80455636
4594.00   0.73130620
4596.00   0.76384808
4598.00   0.78193954
4600.00   0.80423370
4602.00   0.77221332
4604.00   0.78121212
4606.00   0.84571599
4608.00   0.86943699
4610.00   0.86347658
4612.00   0.86290483
4614.00   0.90329673
4616.00   0.86419629
4618.00   0.82164446
4620.00   0.84335523
4622.00   0.84918906
4624.00   0.86806123
4626.00   0.87684527
4628.00   0.88930865
4630.00   0.87144679
4632.00   0.92631503
4634.00   0.95102958
4636.00   0.94820963
4638.00   0.94675883
4640.00   0.97497345
4642.00   1.01279116
4644.00   0.91580156
4646.00   0.96510737
4648.00   0.97264824
4650.00   0.94941979
4652.00   0.97385296
4654.00   0.98099511
4656.00   0.99434638
4658.00   1.01666673
4660.00   0.94546852
4662.00   1.04139741
4664.00   0.98108405
4666.00   0.95505991
4668.00   1.02186560
4670.00   0.96821503
4672.00   1.02945644
4674.00   1.00692269
4676.00   1.03509551
4678.00   1.05898836
4680.00   0.98117065
4682.00   1.03941614
4684.00   1.01212348
4686.00   1.04976922
4688.00   1.02219825
4690.00   1.09187672
4692.00   1.09462931
4694.00   1.15677753
4696.00   1.10403972
4698.00   1.11367581
4700.00   1.10527017
4702.00   1.15446493
4704.00   1.15398949
4706.00   1.13684308
4708.00   1.08437580
4710.00   1.10804553
4712.00   1.11442565
4714.00   1.11782330
4716.00   1.18391259
4718.00   1.16139047
4720.00   1.13160548
4722.00   1.14398254
4724.00   1.11846147
4726.00   1.20919243
4728.00   1.16046449
4730.00   1.16974157
4732.00   1.13704478
4734.00   1.22858035
4736.00   1.23073996
4738.00   1.20019839
4740.00   1.22100026
4742.00   1.24060684
4744.00   1.23264225
4746.00   1.20286578
4748.00   1.18699560
4750.00   1.16580657
4752.00   1.22363779
4754.00   1.22457876
4756.00   1.26379709
4758.00   1.18569817
4760.00   1.12572546
4762.00   1.22524329
4764.00   1.21104370
4766.00   1.15106093
4768.00   1.17462525
4770.00   1.17308163
4772.00   1.22183052
4774.00   1.22369457
4776.00   1.13831218
4778.00   1.23627717
4780.00   1.21150828
4782.00   1.17593940
4784.00   1.25778004
4786.00   1.16321880
4788.00   1.13650697
4790.00   1.20924262
4792.00   1.19318851
4794.00   1.22119302
4796.00   1.19166242
4798.00   1.24010888
4800.00   1.19299827
4802.00   1.20761501
4804.00   1.23571485
4806.00   1.18974785
4808.00   1.21712515
4810.00   1.27310797
4812.00   1.18134479
4814.00   1.23887891
4816.00   1.25541719
4818.00   1.23300357
4820.00   1.21082688
4822.00   1.17315115
4824.00   1.18771957
4826.00   1.18440738
4828.00   1.16451469
4830.00   1.17258733
4832.00   1.09187553
4834.00   1.16142634
4836.00   1.13613018
4838.00   1.07940143
4840.00   1.15896669
4842.00   1.10564242
4844.00   1.09980688
4846.00   1.07958490
4848.00   1.05983029
4850.00   1.06321309
4852.00   1.05196619
4854.00   0.99409321
4856.00   1.00885459
4858.00   0.99074710
4860.00   1.03609239
4862.00   0.96435609
4864.00   1.00715928
4866.00   0.97741571
4868.00   1.04369269
4870.00   0.98589457
4872.00   0.94866628
4874.00   0.97780074
4876.00   1.03125061
4878.00   1.04109891
4880.00   0.98865436
4882.00   0.95571757
4884.00   0.99297768
4886.00   0.99065959
4888.00   1.07231808
4890.00   0.99342267
4892.00   1.02749964
4894.00   1.00084404
4896.00   1.00063365
4898.00   0.96753025
4900.00   0.98634606
4902.00   0.96388303
4904.00   1.00527802
4906.00   0.97576296
4908.00   0.99257571
4910.00   1.02931749
4912.00   0.95420887
4914.00   0.95817931
4916.00   0.94653586
4918.00   0.95639387
4920.00   0.97680729
4922.00   0.97493626
4924.00   0.94490169
4926.00   0.91485232
4928.00   0.95058313
4930.00   0.86421354
4932.00   0.87329125
4934.00   0.82986603
4936.00   0.82670539
4938.00   0.86813652
4940.00   0.80874858
4942.00   0.82358278
4944.00   0.82148885
4946.00   0.83307392
4948.00   0.84787200
4950.00   0.81147377
4952.00   0.82593163
4954.00   0.78381983
4956.00   0.76852622
4958.00   0.81665521
4960.00   0.82314648
4962.00   0.78762883
4964.00   0.80102546
4966.00   0.82913902
4968.00   0.75764256
4970.00   0.74499061
4972.00   0.78500834
4974.00   0.79895462
4976.00   0.81048210
4978.00   0.81751687
4980.00   0.80446644
4982.00   0.80541666
4984.00   0.90391614
4986.00   0.81765991
4988.00   0.78838591
4990.00   0.86255154
4992.00   0.86637964
4994.00   0.91692198
4996.00   0.92921349
4998.00   0.89463750
5000.00   0.91404884
5002.00   0.89343997
5004.00   0.88704927
5006.00   0.86951867
5008.00   0.89530147
5010.00   0.87978923
5012.00   0.82821095
5014.00   0.77973191
5016.00   0.90065885
5018.00   0.83236640
5020.00   0.86023010
5022.00   0.84962319
5024.00   0.85853835
5026.00   0.82668601
5028.00   0.82215049
5030.00   0.81696925
5032.00   0.80104428
5034.00   0.79475153
5036.00   0.75254489
5038.00   0.70989654
5040.00   0.76732440
5042.00   0.76625657
5044.00   0.78948893
5046.00   0.75870194
5048.00   0.71843265
5050.00   0.76059120
5052.00   0.75708241
5054.00   0.71921923
5056.00   0.74840027
5058.00   0.70078230
5060.00   0.68225985
5062.00   0.68218589
5064.00   0.65383833
5066.00   0.71381384
5068.00   0.75932834
5070.00   0.80370940
5072.00   0.81544686
5074.00   0.74184006
5076.00   0.72891262
5078.00   0.69163024
5080.00   0.65721108
5082.00   0.74091411
5084.00   0.71921116
5086.00   0.72867977
5088.00   0.84553409
5090.00   0.81447119
5092.00   0.77889396
5094.00   0.77425756
5096.00   0.72028845
5098.00   0.74536943
5100.00   0.79445206
5102.00   0.79701465
5104.00   0.83297157
5106.00   0.83156019
5108.00   0.83611953
5110.00   0.88795011
5112.00   0.90457897
5114.00   0.86323276
5116.00   0.87269858
5118.00   0.92628667
5120.00   0.91300486
5122.00   0.88243172
5124.00   0.87752859
5126.00   0.90050111
5128.00   0.93072243
5130.00   0.96083619
5132.00   0.94944563
5134.00   0.95237918
5136.00   0.91014960
5138.00   0.94100085
5140.00   0.93251248
5142.00   0.87614602
5144.00   0.89125033
5146.00   0.90967332
5148.00   0.92621048
5150.00   0.93595615
5152.00   0.87336326
5154.00   0.90084371
5156.00   0.91022629
5158.00   0.92537082
5160.00   0.91163424
5162.00   0.89774073
5164.00   0.85575688
5166.00   0.89867265
5168.00   0.85981996
5170.00   0.89599111
5172.00   0.90363821
5174.00   0.86156284
5176.00   0.81978383
5178.00   0.83145002
5180.00   0.81183746
5182.00   0.76806590
5184.00   0.75671955
5186.00   0.81921267
5188.00   0.76731326
5190.00   0.77166032
5192.00   0.81317599
5194.00   0.85759837
5196.00   0.75083310
5198.00   0.78307225
5200.00   0.74187830
5202.00   0.85893899
5204.00   0.77762922
5206.00   0.73998523
5208.00   0.77638012
5210.00   0.80519513
5212.00   0.73945759
5214.00   0.72797805
5216.00   0.77459695
5218.00   0.88318317
5220.00   0.81319506
5222.00   0.80549974
5224.00   0.86470420
5226.00   0.82871017
5228.00   0.81638664
5230.00   0.76944599
5232.00   0.73883035
5234.00   0.79129446
5236.00   0.78308716
5238.00   0.82208023
5240.00   0.85862331
5242.00   0.83234049
5244.00   0.81774274
5246.00   0.82996971
5248.00   0.80706385
5250.00   0.82489749
5252.00   0.84280283
5254.00   0.82282274
5256.00   0.78324776
5258.00   0.79792279
5260.00   0.82065205
5262.00   0.82751921
5264.00   0.78363433
5266.00   0.81091242
5268.00   0.85483795
5270.00   0.85092785
5272.00   0.80960123
5274.00   0.86617382
5276.00   0.82750060
5278.00   0.86315884
5280.00   0.81086053
5282.00   0.88968956
5284.00   0.83546306
5286.00   0.81170274
5288.00   0.81068848
5290.00   0.84667965
5292.00   0.86641813
5294.00   0.84156532
5296.00   0.85134399
5298.00   0.83907955
5300.00   0.80413002
5302.00   0.81102808
5304.00   0.87954039
5306.00   0.88004694
5308.00   0.89868145
5310.00   0.85599231
5312.00   0.86379767
5314.00   0.91245001
5316.00   0.94735118
5318.00   0.88281326
5320.00   0.86321101
5322.00   0.87499390
5324.00   0.94085509
5326.00   0.85178336
5328.00   0.88652575
5330.00   0.88677312
5332.00   0.94528540
5334.00   0.98753653
5336.00   0.86987472
5338.00   0.96696548
5340.00   0.93749139
5342.00   0.92361286
5344.00   0.91063534
5346.00   0.92942000
5348.00   0.93284171
5350.00   0.90720602
5352.00   0.96304899
5354.00   0.88682393
5356.00   0.98654015
5358.00   0.89990848
5360.00   0.87586568
5362.00   0.94714033
5364.00   0.88642930
5366.00   0.94794116
5368.00   0.91900369
5370.00   0.90980546
5372.00   0.92213747
5374.00   0.94835235
5376.00   0.93055558
5378.00   0.95817621
5380.00   0.90395438
5382.00   1.03823821
5384.00   0.91777777
5386.00   0.92505723
5388.00   0.99018387
5390.00   0.97679136
5392.00   0.89970332
5394.00   0.89389095
5396.00   0.91283289
5398.00   0.92412305
5400.00   0.94577596
5402.00   0.96459618
5404.00   0.96251667
5406.00   0.95406100
5408.00   0.96447331
5410.00   0.99191698
5412.00   0.99840629
5414.00   0.99320126
5416.00   0.97299930
5418.00   0.96829388
5420.00   0.98634854
5422.00   1.00056538
5424.00   1.02636629
5426.00   1.02560246
5428.00   0.98815349
5430.00   0.95341989
5432.00   0.96730250
5434.00   1.03338265
5436.00   1.05344334
5438.00   1.04560727
5440.00   1.03889638
5442.00   1.05520540
5444.00   1.04900536
5446.00   1.00144127
5448.00   0.93676814
5450.00   0.92990685
5452.00   0.96797013
5454.00   0.99966213
5456.00   1.04084393
5458.00   1.06379354
5460.00   1.06831592
5462.00   1.05661458
5464.00   1.01739651
5466.00   0.94065526
5468.00   0.90396014
5470.00   0.89597881
5472.00   0.89340675
5474.00   0.90142256
5476.00   0.92055324
5478.00   0.92969534
5480.00   0.92838684
5482.00   0.92229596
5484.00   0.91129303
5486.00   0.90116701
5488.00   0.87961444
5490.00   0.84627742
5492.00   0.82778531
5494.00   0.82516232
5496.00   0.81980768
5498.00   0.81627896
5500.00   0.82488132
5502.00   0.84253204
5504.00   0.85366222
5506.00   0.87376061
5508.00   0.89365226
5510.00   0.88613907
5512.00   0.85487026
5514.00   0.83856329
5516.00   0.82547078
5518.00   0.82313618
5520.00   0.83132964
5522.00   0.83819625
5524.00   0.83648044
5526.00   0.82599202
5528.00   0.82013816
5530.00   0.80785480
5532.00   0.81979752
5534.00   0.85505012
5536.00   0.88274270
5538.00   0.88985327
5540.00   0.89216208
5542.00   0.88706169
5544.00   0.86835882
5546.00   0.84592348
5548.00   0.82353121
5550.00   0.82327095
5552.00   0.84145194
5554.00   0.86634865
5556.00   0.85772082
5558.00   0.81371871
5560.00   0.80411601
5562.00   0.83029315
5564.00   0.85559025
5566.00   0.86611143
5568.00   0.86060607
5570.00   0.84268758
5572.00   0.80481347
5574.00   0.79263762
5576.00   0.79597163
5578.00   0.82034591
5580.00   0.85116130
5582.00   0.86260208
5584.00   0.87003142
5586.00   0.87952837
5588.00   0.87686533
5590.00   0.85412166
5592.00   0.83890805
5594.00   0.83218458
5596.00   0.83432585
5598.00   0.84380022
5600.00   0.85901591
5602.00   0.86457053
5604.00   0.86662993
5606.00   0.86108312
5608.00   0.84232172
5610.00   0.83523035
5612.00   0.83974171
5614.00   0.84895414
5616.00   0.85651499
5618.00   0.86777025
5620.00   0.86605132
5622.00   0.85368007
5624.00   0.84163684
5626.00   0.82717451
5628.00   0.80552593
5630.00   0.79187715
5632.00   0.78722343
5634.00   0.78716001
5636.00   0.78942284
5638.00   0.78890345
5640.00   0.79591718
5642.00   0.80575463
5644.00   0.80605569
5646.00   0.80015397
5648.00   0.80204198
5650.00   0.81486386
5652.00   0.81460577
5654.00   0.80350369
5656.00   0.79351223
5658.00   0.78110334
5660.00   0.75875622
5662.00   0.75144932
5664.00   0.75450578
5666.00   0.76322478
5668.00   0.78283691
5670.00   0.78789523
5672.00   0.77041379
5674.00   0.75092861
5676.00   0.74931467
5678.00   0.75572574
5680.00   0.75536314
5682.00   0.76366574
5684.00   0.77201557
5686.00   0.75616229
5688.00   0.72375882
5690.00   0.70885879
5692.00   0.70209870
5694.00   0.69658488
5696.00   0.69264770
5698.00   0.69026798
5700.00   0.69688693
5702.00   0.71109518
5704.00   0.71363065
5706.00   0.70591769
5708.00   0.70186844
5710.00   0.70083463
5712.00   0.69802266
5714.00   0.68123794
5716.00   0.66979489
5718.00   0.68793777
5720.00   0.72324410
5722.00   0.73621494
5724.00   0.73903424
5726.00   0.74070129
5728.00   0.73404142
5730.00   0.72734189
5732.00   0.72123304
5734.00   0.71092498
5736.00   0.70678180
5738.00   0.70520076
5740.00   0.71228462
5742.00   0.73144245
5744.00   0.74760547
5746.00   0.75455794
5748.00   0.75359440
5750.00   0.75797960
5752.00   0.76351237
5754.00   0.77016404
5756.00   0.77454972
5758.00   0.78878126
5760.00   0.81337368
5762.00   0.83526367
5764.00   0.84499264
5766.00   0.84984541
5768.00   0.84102663
5770.00   0.80879816
5772.00   0.78917471
5774.00   0.77972040
5776.00   0.78114858
5778.00   0.79080829
5780.00   0.80957198
5782.00   0.82312021
5784.00   0.83778650
5786.00   0.84419149
5788.00   0.84773239
5790.00   0.84488553
5792.00   0.83467600
5794.00   0.82286692
5796.00   0.81917709
5798.00   0.82216713
5800.00   0.82928538
5802.00   0.84577891
5804.00   0.84729144
5806.00   0.83497238
5808.00   0.81710467
5810.00   0.81628492
5812.00   0.83956724
5814.00   0.84300303
5816.00   0.82287788
5818.00   0.79952013
5820.00   0.79750359
5822.00   0.80633345
5824.00   0.80690828
5826.00   0.80863652
5828.00   0.80743229
5830.00   0.79924369
5832.00   0.79685295
5834.00   0.80715701
5836.00   0.82017329
5838.00   0.82308599
5840.00   0.81502017
5842.00   0.80141675
5844.00   0.77419999
5846.00   0.76132891
5848.00   0.75598636
5850.00   0.76511523
5852.00   0.78725550
5854.00   0.81712681
5856.00   0.83437431
5858.00   0.84668994
5860.00   0.83970875
5862.00   0.80403674
5864.00   0.78652313
5866.00   0.79541326
5868.00   0.81512806
5870.00   0.81098580
5872.00   0.79227617
5874.00   0.78943872
5876.00   0.80560732
5878.00   0.80169779
5880.00   0.76391813
5882.00   0.74933231
5884.00   0.82671121
5886.00   0.99467352
5888.00   1.06076238
5890.00   1.08826107
5892.00   1.04094023
5894.00   0.89986065
5896.00   0.77039784
5898.00   0.72760019
5900.00   0.75165820
5902.00   0.74591127
5904.00   0.73511043
5906.00   0.72996110
5908.00   0.74078831
5910.00   0.75158674
5912.00   0.75860196
5914.00   0.76193789
5916.00   0.77060819
5918.00   0.78708145
5920.00   0.79813516
5922.00   0.80408850
5924.00   0.80499324
5926.00   0.79766276
5928.00   0.78420201
5930.00   0.78013450
5932.00   0.78355113
5934.00   0.78501636
5936.00   0.79227158
5938.00   0.78160554
5940.00   0.76080942
5942.00   0.74646240
5944.00   0.72462165
5946.00   0.69308358
5948.00   0.68122998
5950.00   0.68527487
5952.00   0.68623266
5954.00   0.69333515
5956.00   0.69958082
5958.00   0.69873434
5960.00   0.70139515
5962.00   0.70738006
5964.00   0.72074249
5966.00   0.72153991
5968.00   0.70783114
5970.00   0.68655095
5972.00   0.67833585
5974.00   0.69059566
5976.00   0.69992810
5978.00   0.70771933
5980.00   0.70881441
5982.00   0.70463863
5984.00   0.71483847
5986.00   0.73572826
5988.00   0.74123815
5990.00   0.72420758
5992.00   0.69395000
5994.00   0.68936962
5996.00   0.70447889
5998.00   0.71292982
6000.00   0.72224355
6002.00   0.72336924
6004.00   0.71129504
6006.00   0.69515178
6008.00   0.68944404
6010.00   0.68256205
6012.00   0.68703887
6014.00   0.71899152
6016.00   0.75535709
6018.00   0.77870038
6020.00   0.80124676
6022.00   0.79780510
6024.00   0.76237711
6026.00   0.74438617
6028.00   0.74398446
6030.00   0.74781308
6032.00   0.74891850
6034.00   0.74942583
6036.00   0.74800524
6038.00   0.74357119
6040.00   0.74476680
6042.00   0.75255162
6044.00   0.76161888
6046.00   0.76114550
6048.00   0.75106367
6050.00   0.76379317
6052.00   0.79886618
6054.00   0.81688160
6056.00   0.82086372
6058.00   0.83100909
6060.00   0.84524837
6062.00   0.85064515
6064.00   0.85181272
6066.00   0.84972858
6068.00   0.85482904
6070.00   0.86634713
6072.00   0.87499130
6074.00   0.88260743
6076.00   0.88405663
6078.00   0.87785387
6080.00   0.87247682
6082.00   0.87329119
6084.00   0.87564179
6086.00   0.88019741
6088.00   0.89263302
6090.00   0.90573993
6092.00   0.91602942
6094.00   0.92035690
6096.00   0.91551659
6098.00   0.90346614
6100.00   0.89171049
6102.00   0.86986661
6104.00   0.86129454
6106.00   0.86845639
6108.00   0.87368423
6110.00   0.87948883
6112.00   0.88614419
6114.00   0.89040309
6116.00   0.88887781
6118.00   0.90241826
6120.00   0.92050862
6122.00   0.92689866
6124.00   0.92383179
6126.00   0.90951452
6128.00   0.89759648
6130.00   0.88186759
6132.00   0.87574539
6134.00   0.87745497
6136.00   0.87028125
6138.00   0.85092413
6140.00   0.82515073
6142.00   0.80408207
6144.00   0.77775466
6146.00   0.76323712
6148.00   0.75608701
6150.00   0.77011564
6152.00   0.81187391
6154.00   0.86387327
6156.00   0.86679506
6158.00   0.82681203
6160.00   0.81762865
6162.00   0.83034405
6164.00   0.84877378
6166.00   0.86806792
6168.00   0.87792253
6170.00   0.87183273
6172.00   0.84948432
6174.00   0.84250727
6176.00   0.84502324
6178.00   0.84985378
6180.00   0.85292721
6182.00   0.85365307
6184.00   0.85357922
6186.00   0.85101873
6188.00   0.84668559
6190.00   0.83738309
6192.00   0.83426720
6194.00   0.83918324
6196.00   0.84468541
6198.00   0.84211907
6200.00   0.84093291
6202.00   0.85107705
6204.00   0.87405124
6206.00   0.87285042
6208.00   0.84591192
6210.00   0.82647502
6212.00   0.82430863
6214.00   0.83564374
6216.00   0.84309003
6218.00   0.85483664
6220.00   0.85283881
6222.00   0.83457616
6224.00   0.81922504
6226.00   0.81431192
6228.00   0.81290457
6230.00   0.81090361
6232.00   0.81126750
6234.00   0.80382147
6236.00   0.78274390
6238.00   0.77668104
6240.00   0.78857005
6242.00   0.80418208
6244.00   0.79641196
6246.00   0.75817958
6248.00   0.75584015
6250.00   0.78141445
6252.00   0.79982299
6254.00   0.81032750
6256.00   0.81026381
6258.00   0.80027100
6260.00   0.78361598
6262.00   0.77161267
6264.00   0.75421160
6266.00   0.74982864
6268.00   0.76511306
6270.00   0.78154388
6272.00   0.78023690
6274.00   0.76938474
6276.00   0.77148652
6278.00   0.77878976
6280.00   0.78317872
6282.00   0.79193208
6284.00   0.79610005
6286.00   0.77656671
6288.00   0.74642611
6290.00   0.75198206
6292.00   0.78679618
6294.00   0.80118757
6296.00   0.80990639
6298.00   0.80968037
6300.00   0.79758599
6302.00   0.77897388
6304.00   0.76653022
6306.00   0.76559272
6308.00   0.75650814
6310.00   0.73871377
6312.00   0.72703132
6314.00   0.72809881
6316.00   0.73073152
6318.00   0.72799534
6320.00   0.72351164
6322.00   0.71194658
6324.00   0.69343695
6326.00   0.67526925
6328.00   0.65389007
6330.00   0.63333437
6332.00   0.61998320
6334.00   0.61580443
6336.00   0.60780996
6338.00   0.59596527
6340.00   0.58297491
6342.00   0.56672025
6344.00   0.55767131
6346.00   0.55351356
6348.00   0.55136031
6350.00   0.55083561
6352.00   0.55481306
6354.00   0.55569854
6356.00   0.55878672
6358.00   0.55198243
6360.00   0.53351596
6362.00   0.51568937
6364.00   0.50312050
6366.00   0.49448720
6368.00   0.49761675
6370.00   0.51534447
6372.00   0.51489477
6374.00   0.50000679
6376.00   0.49498805
6378.00   0.49255221
6380.00   0.48637843
6382.00   0.48289031
6384.00   0.48131427
6386.00   0.48041891
6388.00   0.47998555
6390.00   0.48136176
6392.00   0.48245396
6394.00   0.48270427
6396.00   0.48660156
6398.00   0.49318817
6400.00   0.49682139
6402.00   0.49551243
6404.00   0.50260811
6406.00   0.51692006
6408.00   0.52433552
6410.00   0.52669838
6412.00   0.52452387
6414.00   0.51494177
6416.00   0.49172777
6418.00   0.48230582
6420.00   0.48232743
6422.00   0.48749383
6424.00   0.48659725
6426.00   0.48304866
6428.00   0.48579504
6430.00   0.49028987
6432.00   0.49136314
6434.00   0.49619208
6436.00   0.50458728
6438.00   0.50825787
6440.00   0.51477154
6442.00   0.52361971
6444.00   0.53283921
6446.00   0.53992361
6448.00   0.54863140
6450.00   0.55491272
6452.00   0.55572474
6454.00   0.55617750
6456.00   0.55773932
6458.00   0.55525282
6460.00   0.55998036
6462.00   0.57576859
6464.00   0.58697912
6466.00   0.58594099
6468.00   0.58038840
6470.00   0.57937390
6472.00   0.57704163
6474.00   0.58257550
6476.00   0.59897932
6478.00   0.60502017
6480.00   0.60029161
6482.00   0.59934008
6484.00   0.60186994
6486.00   0.60645321
6488.00   0.61463270
6490.00   0.62819606
6492.00   0.63621879
6494.00   0.63974327
6496.00   0.64109266
6498.00   0.64524379
6500.00   0.65422907
6502.00   0.66018426
6504.00   0.66501984
6506.00   0.66842416
6508.00   0.67318156
6510.00   0.67036894
6512.00   0.66083580
6514.00   0.65326223
6516.00   0.64660090
6518.00   0.63547340
6520.00   0.64150071
6522.00   0.66970244
6524.00   0.68796834
6526.00   0.69899896
6528.00   0.70454225
6530.00   0.70200518
6532.00   0.69415390
6534.00   0.68899545
6536.00   0.68075460
6538.00   0.67974147
6540.00   0.69134742
6542.00   0.69312087
6544.00   0.68283063
6546.00   0.67450890
6548.00   0.67412746
6550.00   0.68023190
6552.00   0.68201751
6554.00   0.67962384
6556.00   0.67955819
6558.00   0.68554547
6560.00   0.68974316
6562.00   0.69770110
6564.00   0.71164730
6566.00   0.71868581
6568.00   0.71780971
6570.00   0.72014698
6572.00   0.72370633
6574.00   0.72826767
6576.00   0.72854635
6578.00   0.71895814
6580.00   0.71115872
6582.00   0.70151216
6584.00   0.69918507
6586.00   0.69489703
6588.00   0.69375709
6590.00   0.70720577
6592.00   0.73135951
6594.00   0.73886034
6596.00   0.73582572
6598.00   0.73581848
6600.00   0.73468837
6602.00   0.73427844
6604.00   0.73341134
6606.00   0.72693110
6608.00   0.72370377
6610.00   0.72491765
6612.00   0.72476423
6614.00   0.71892872
6616.00   0.71252435
6618.00   0.71577933
6620.00   0.72111067
6622.00   0.71319637
6624.00   0.69313484
6626.00   0.68978932
6628.00   0.70066699
6630.00   0.71422315
6632.00   0.72772291
6634.00   0.73193225
6636.00   0.72676176
6638.00   0.71266448
6640.00   0.70615384
6642.00   0.70199221
6644.00   0.70337346
6646.00   0.70474935
6648.00   0.70393440
6650.00   0.71202812
6652.00   0.72490388
6654.00   0.71936435
6656.00   0.69302741
6658.00   0.68881381
6660.00   0.70757133
6662.00   0.72394288
6664.00   0.72014770
6666.00   0.69893599
6668.00   0.69744885
6670.00   0.71127123
6672.00   0.71957263
6674.00   0.72351086
6676.00   0.72062770
6678.00   0.71113130
6680.00   0.69813946
6682.00   0.70182329
6684.00   0.72378108
6686.00   0.72991517
6688.00   0.72145078
6690.00   0.71331781
6692.00   0.71012166
6694.00   0.70813623
6696.00   0.70798883
6698.00   0.71281460
6700.00   0.71437618
6702.00   0.71415439
6704.00   0.71071586
6706.00   0.70759872
6708.00   0.70964175
6710.00   0.71301001
6712.00   0.71806523
6714.00   0.71832362
6716.00   0.71251443
6718.00   0.71282366
6720.00   0.72701913
6722.00   0.73044917
6724.00   0.71087649
6726.00   0.68472961
6728.00   0.67901918
6730.00   0.68545309
6732.00   0.69244301
6734.00   0.70719355
6736.00   0.71549252
6738.00   0.71718389
6740.00   0.71649316
6742.00   0.71791321
6744.00   0.71966228
6746.00   0.71728754
6748.00   0.70797411
6750.00   0.70567897
6752.00   0.71168771
6754.00   0.71445349
6756.00   0.70506948
6758.00   0.68702510
6760.00   0.68400276
6762.00   0.69612101
6764.00   0.69885218
6766.00   0.68895835
6768.00   0.67617834
6770.00   0.67458797
6772.00   0.68284270
6774.00   0.68404660
6776.00   0.68159223
6778.00   0.67812333
6780.00   0.67378554
6782.00   0.67451492
6784.00   0.67928690
6786.00   0.68306312
6788.00   0.68224731
6790.00   0.68003759
6792.00   0.68243489
6794.00   0.68767673
6796.00   0.68719733
6798.00   0.68836838
6800.00   0.69108817
6802.00   0.69053459
6804.00   0.68811941
6806.00   0.68725228
6808.00   0.68650886
6810.00   0.68783957
6812.00   0.69120654
6814.00   0.68823722
6816.00   0.68178648
6818.00   0.67619547
6820.00   0.67834726
6822.00   0.68736708
6824.00   0.69566470
6826.00   0.70782962
6828.00   0.71448916
6830.00   0.70811859
6832.00   0.68894005
6834.00   0.69845715
6836.00   0.72105506
6838.00   0.77699476
6840.00   0.89798722
6842.00   0.97288790
6844.00   0.96449697
6846.00   0.90055206
6848.00   0.83349726
6850.00   0.73555204
6852.00   0.68541551
6854.00   0.66095191
6856.00   0.65822932
6858.00   0.69941950
6860.00   0.75343475
6862.00   0.77474007
6864.00   0.79000360
6866.00   0.78012538
6868.00   0.72964519
6870.00   0.69084880
6872.00   0.67496192
6874.00   0.67318502
6876.00   0.66393706
6878.00   0.64743453
6880.00   0.63150185
6882.00   0.61161792
6884.00   0.59743485
6886.00   0.58833623
6888.00   0.58847275
6890.00   0.59199318
6892.00   0.59986883
6894.00   0.60625181
6896.00   0.61369899
6898.00   0.62149161
6900.00   0.63300598
6902.00   0.63628283
6904.00   0.63170260
6906.00   0.62140763
6908.00   0.61460021
6910.00   0.60887900
6912.00   0.60709962
6914.00   0.60800669
6916.00   0.60934305
6918.00   0.61785784
6920.00   0.62433633
6922.00   0.61041901
6924.00   0.58332253
6926.00   0.57858032
6928.00   0.59224772
6930.00   0.59851703
6932.00   0.61010125
6934.00   0.61541674
6936.00   0.60213020
6938.00   0.57572493
6940.00   0.56911421
6942.00   0.57579648
6944.00   0.58083493
6946.00   0.58582890
6948.00   0.58600876
6950.00   0.58518499
6952.00   0.58709696
6954.00   0.58680865
6956.00   0.58304209
6958.00   0.58261466
6960.00   0.58928776
6962.00   0.59269848
6964.00   0.58699399
6966.00   0.57875600
6968.00   0.57572153
6970.00   0.57271683
6972.00   0.57343242
6974.00   0.58246049
6976.00   0.58686873
6978.00   0.58477086
6980.00   0.57871306
6982.00   0.56950352
6984.00   0.55727881
6986.00   0.54775020
6988.00   0.53086933
6990.00   0.53197798
6992.00   0.55628353
6994.00   0.58139881
6996.00   0.59371087
6998.00   0.60412019
7000.00   0.61131147
7002.00   0.61563423
7004.00   0.61281553
7006.00   0.60340518
7008.00   0.59183306
7010.00   0.58165914
7012.00   0.57206270
7014.00   0.57372934
7016.00   0.58943376
7018.00   0.59714907
7020.00   0.59961244
7022.00   0.59405026
7024.00   0.58104628
7026.00   0.56241456
7028.00   0.55119410
7030.00   0.54354560
7032.00   0.53665796
7034.00   0.52693859
7036.00   0.52845079
7038.00   0.54401556
7040.00   0.55337343
7042.00   0.54584484
7044.00   0.52859792
7046.00   0.52627152
7048.00   0.53552163
7050.00   0.54040301
7052.00   0.54239407
7054.00   0.54273066
7056.00   0.54416412
7058.00   0.54741728
7060.00   0.54571626
7062.00   0.53908625
7064.00   0.53567255
7066.00   0.53587779
7068.00   0.53328463
7070.00   0.52726513
7072.00   0.51803899
7074.00   0.51912126
7076.00   0.53181803
7078.00   0.54176581
7080.00   0.54707912
7082.00   0.55000213
7084.00   0.55784467
7086.00   0.56809893
7088.00   0.57520431
7090.00   0.57890609
7092.00   0.57196090
7094.00   0.55133590
7096.00   0.53997558
7098.00   0.52790225
7100.00   0.51815844
7102.00   0.52377309
7104.00   0.53904283
7106.00   0.54467058
7108.00   0.54722467
7110.00   0.55039394
7112.00   0.54244652
7114.00   0.53438652
7116.00   0.54281285
7118.00   0.55553868
7120.00   0.55321202
7122.00   0.53954694
7124.00   0.53689289
7126.00   0.53790250
7128.00   0.53767893
7130.00   0.54089168
7132.00   0.54104412
7134.00   0.53877284
7136.00   0.53740504
7138.00   0.54367900
7140.00   0.55839869
7142.00   0.55977607
7144.00   0.54857421
7146.00   0.53117247
7148.00   0.52720806
7150.00   0.53684035
7152.00   0.54058227
7154.00   0.54120284
7156.00   0.53680262
7158.00   0.53358322
7160.00   0.52897942
7162.00   0.52148595
7164.00   0.50872631
7166.00   0.50589481
7168.00   0.51224527
7170.00   0.52023679
7172.00   0.52326038
7174.00   0.52299958
7176.00   0.52738377
7178.00   0.53243455
7180.00   0.53625759
7182.00   0.54135826
7184.00   0.54001087
7186.00   0.53081498
7188.00   0.52405678
7190.00   0.51869109
7192.00   0.51160602
7194.00   0.51008672
7196.00   0.51344836
7198.00   0.52127537
7200.00   0.53692377
7202.00   0.54683509
7204.00   0.54937178
7206.00   0.54769665
7208.00   0.54872808
7210.00   0.55238861
7212.00   0.55048537
7214.00   0.54132748
7216.00   0.53468400
7218.00   0.53205317
7220.00   0.53104353
7222.00   0.52690640
7224.00   0.51425534
7226.00   0.50897309
7228.00   0.50725150
7230.00   0.51313619
7232.00   0.52180657
7234.00   0.53142646
7236.00   0.54299328
7238.00   0.54395601
7240.00   0.53731225
7242.00   0.52263185
7244.00   0.52570659
7246.00   0.53979045
7248.00   0.54110837
7250.00   0.53123225
7252.00   0.51457097
7254.00   0.51072033
7256.00   0.51609492
7258.00   0.52092314
7260.00   0.52780575
7262.00   0.53121227
7264.00   0.53020993
7266.00   0.53001034
7268.00   0.53551957
7270.00   0.54848811
7272.00   0.54640958
7274.00   0.52536470
7276.00   0.51330151
7278.00   0.51718727
7280.00   0.52335392
7282.00   0.52246886
7284.00   0.52096741
7286.00   0.52400462
7288.00   0.53371572
7290.00   0.53342019
7292.00   0.52312656
7294.00   0.51580791
7296.00   0.51193218
7298.00   0.50788245
7300.00   0.51036158
7302.00   0.52176759
7304.00   0.52590305
7306.00   0.52161250
7308.00   0.51707928
7310.00   0.51722606
7312.00   0.51651216
7314.00   0.51797917
7316.00   0.52597654
7318.00   0.52491894
7320.00   0.50712122
7322.00   0.50005636
7324.00   0.51360582
7326.00   0.53212002
7328.00   0.53600344
7330.00   0.52765712
7332.00   0.52974007
7334.00   0.54398525
7336.00   0.55284226
7338.00   0.54356676
7340.00   0.52385321
7342.00   0.51253881
7344.00   0.50326709
7346.00   0.50602578
7348.00   0.52467521
7350.00   0.53327522
7352.00   0.53238374
7354.00   0.53229803
7356.00   0.53217918
7358.00   0.52338897
7360.00   0.51599988
7362.00   0.50727479
7364.00   0.50674674
7366.00   0.51228496
7368.00   0.51767404
7370.00   0.52233404
7372.00   0.52588961
7374.00   0.52069312
7376.00   0.50496134
7378.00   0.49864033
7380.00   0.50022134
7382.00   0.50230619
7384.00   0.50417884
7386.00   0.50871322
7388.00   0.51204914
7390.00   0.51508936
7392.00   0.51665917
7394.00   0.51559316
7396.00   0.51613121
7398.00   0.52146465
7400.00   0.52706057
7402.00   0.52784242
7404.00   0.52162278
7406.00   0.51853813
7408.00   0.51743732
7410.00   0.51682143
7412.00   0.51182029
7414.00   0.50500280
7416.00   0.50070201
7418.00   0.49834764
7420.00   0.49679777
7422.00   0.49599451
7424.00   0.49688302
7426.00   0.49971859
7428.00   0.50106135
7430.00   0.50890741
7432.00   0.52756888
7434.00   0.52653351
7436.00   0.50518897
7438.00   0.49394313
7440.00   0.49066558
7442.00   0.49117351
7444.00   0.49019043
7446.00   0.48377021
7448.00   0.47536561
7450.00   0.46734342
7452.00   0.47357832
7454.00   0.49844712
7456.00   0.51066370
7458.00   0.51293218
7460.00   0.50981158
7462.00   0.50887097
7464.00   0.51262155
7466.00   0.51236075
7468.00   0.50921318
7470.00   0.50248089
7472.00   0.49293838
7474.00   0.48870194
7476.00   0.48992205
7478.00   0.49302013
7480.00   0.49220331
7482.00   0.48846637
7484.00   0.48928374
7486.00   0.49703377
7488.00   0.50005530
7490.00   0.49244106
7492.00   0.48254287
7494.00   0.48254171
7496.00   0.48697464
7498.00   0.48320749
7500.00   0.46854822
7502.00   0.46658404
7504.00   0.47594738
7506.00   0.48865014
7508.00   0.49952157
7510.00   0.51278515
7512.00   0.51945522
7514.00   0.51828212
7516.00   0.52034089
7518.00   0.53103271
7520.00   0.53894794
7522.00   0.53234506
7524.00   0.51681459
7526.00   0.50862552
7528.00   0.50183640
7530.00   0.49806620
7532.00   0.50002302
7534.00   0.49844988
7536.00   0.49109578
7538.00   0.48126598
7540.00   0.47873794
7542.00   0.48285240
7544.00   0.48480275
7546.00   0.48316008
7548.00   0.48331574
7550.00   0.48861581
7552.00   0.49775107
7554.00   0.50591998
7556.00   0.51168416
7558.00   0.51236928
7560.00   0.50554596
7562.00   0.50575358
7564.00   0.51478860
7566.00   0.53145650
7568.00   0.53456622
7570.00   0.52743891
7572.00   0.52225903
7574.00   0.51341255
7576.00   0.50545764
7578.00   0.50629024
7580.00   0.51007769
7582.00   0.50338171
7584.00   0.49262214
7586.00   0.48383358
7588.00   0.47254308
7590.00   0.46374184
7592.00   0.45807049
7594.00   0.45471431
7596.00   0.45885298
7598.00   0.47835258
7600.00   0.49858373
7602.00   0.52791980
7604.00   0.52808595
7606.00   0.49048012
7608.00   0.47355063
7610.00   0.48484723
7612.00   0.50506261
7614.00   0.51956129
7616.00   0.53328770
7618.00   0.53211492
7620.00   0.51277089
7622.00   0.50494567
7624.00   0.49576789
7626.00   0.48982523
7628.00   0.50209662
7630.00   0.52040894
7632.00   0.52005160
7634.00   0.50403748
7636.00   0.49827641
7638.00   0.49210367
7640.00   0.49486464
7642.00   0.50124547
7644.00   0.50414994
7646.00   0.50452240
7648.00   0.50228520
7650.00   0.49777511
7652.00   0.49003859
7654.00   0.48866859
7656.00   0.48795448
7658.00   0.48763017
7660.00   0.48769997
7662.00   0.48726819
7664.00   0.48172761
7666.00   0.47133704
7668.00   0.46354988
7670.00   0.45701207
7672.00   0.45480365
7674.00   0.45427960
7676.00   0.45541593
7678.00   0.45842974
7680.00   0.46821928
7682.00   0.46941109
7684.00   0.46191557
7686.00   0.45246918
7688.00   0.44638062
7690.00   0.44557479
7692.00   0.44966894
7694.00   0.46139944
7696.00   0.46483725
7698.00   0.46590924
7700.00   0.46674229
7702.00   0.46640858
7704.00   0.47292060
7706.00   0.47999768
7708.00   0.48992392
7710.00   0.48606889
7712.00   0.47302899
7714.00   0.45924670
7716.00   0.44014153
7718.00   0.42794734
7720.00   0.43525101
7722.00   0.45880209
7724.00   0.46449107
7726.00   0.46319622
7728.00   0.45294903
7730.00   0.42689484
7732.00   0.41333458
7734.00   0.42625797
7736.00   0.45045495
7738.00   0.45626111
7740.00   0.44652593
7742.00   0.45314516
7744.00   0.46951737
7746.00   0.48660880
7748.00   0.49823558
7750.00   0.50329538
7752.00   0.49977382
7754.00   0.48388398
7756.00   0.48285845
7758.00   0.49199659
7760.00   0.48570405
7762.00   0.46593019
7764.00   0.44246905
7766.00   0.43838201
7768.00   0.45150349
7770.00   0.45418653
7772.00   0.45039649
7774.00   0.43907569
7776.00   0.42364855
7778.00   0.41456524
7780.00   0.42147759
7782.00   0.44444492
7784.00   0.45216757
7786.00   0.44873358
7788.00   0.44293334
7790.00   0.43917507
7792.00   0.44221850
7794.00   0.45137545
7796.00   0.47014898
7798.00   0.47236675
7800.00   0.45785592
7802.00   0.44743735
7804.00   0.44624446
7806.00   0.44609773
7808.00   0.44104648
7810.00   0.43651818
7812.00   0.42964771
7814.00   0.42144191
7816.00   0.41074200
7818.00   0.39025976
7820.00   0.37333485
7822.00   0.38321729
7824.00   0.41883625
7826.00   0.44126055
7828.00   0.46224205
7830.00   0.47273298
7832.00   0.47246712
7834.00   0.47777319
7836.00   0.49030733
7838.00   0.50449498
7840.00   0.49782519
7842.00   0.46996748
7844.00   0.45776069
7846.00   0.46060565
7848.00   0.45676649
7850.00   0.44470322
7852.00   0.43225634
7854.00   0.42896833
7856.00   0.43799697
7858.00   0.43642646
7860.00   0.42144749
7862.00   0.41855030
7864.00   0.43318449
7866.00   0.44496095
7868.00   0.45010674
7870.00   0.45255785
7872.00   0.45495817
7874.00   0.46063147
7876.00   0.46326050
7878.00   0.45355630
7880.00   0.43532564
7882.00   0.42361064
7884.00   0.41047862
7886.00   0.41548568
7888.00   0.44364600
7890.00   0.45770295
7892.00   0.45494844
7894.00   0.45225462
7896.00   0.45724663
7898.00   0.46410017
7900.00   0.45909247
7902.00   0.43714228
7904.00   0.43945920
7906.00   0.47581737
7908.00   0.49510996
7910.00   0.47717234
7912.00   0.44675027
7914.00   0.45372011
7916.00   0.49430960
7918.00   0.50427273
7920.00   0.49316703
7922.00   0.48258707
7924.00   0.47336906
7926.00   0.47185361
7928.00   0.47681941
7930.00   0.48440886
7932.00   0.48466542
7934.00   0.47899105
7936.00   0.47260749
7938.00   0.46356665
7940.00   0.46465242
7942.00   0.47503063
7944.00   0.48911960
7946.00   0.48828083
7948.00   0.47497903
7950.00   0.46280947
7952.00   0.44705561
7954.00   0.43771492
7956.00   0.43586639
7958.00   0.44450670
7960.00   0.46344973
7962.00   0.50028925
7964.00   0.50802290
7966.00   0.48446023
7968.00   0.47103822
7970.00   0.47122416
7972.00   0.47089110
7974.00   0.47100011
7976.00   0.47642237
7978.00   0.47896422
7980.00   0.47964944
7982.00   0.48076512
7984.00   0.48133557
7986.00   0.48357552
7988.00   0.49341059
7990.00   0.50814489
7992.00   0.49682695
7994.00   0.45892566
7996.00   0.43564712
7998.00   0.42099237
8000.00   0.41770698
8002.00   0.42376180
8004.00   0.43948457
8006.00   0.45106696
8008.00   0.46116653
8010.00   0.46366918
8012.00   0.45894350
8014.00   0.46110167
8016.00   0.47016080
8018.00   0.47524288
8020.00   0.46254967
8022.00   0.43502045
8024.00   0.42693518
8026.00   0.43103661
8028.00   0.43852629
8030.00   0.45697816
8032.00   0.47376436
8034.00   0.47250955
8036.00   0.46181977
8038.00   0.46154167
8040.00   0.46762250
8042.00   0.46812567
8044.00   0.46622327
8046.00   0.46487792
8048.00   0.46719608
8050.00   0.47322993
8052.00   0.48000561
8054.00   0.49338973
8056.00   0.49976784
8058.00   0.49479792
8060.00   0.48371573
8062.00   0.48185930
8064.00   0.48121925
8066.00   0.47809945
8068.00   0.47927175
8070.00   0.47720742
8072.00   0.46582949
8074.00   0.45597991
8076.00   0.45607851
8078.00   0.46025817
8080.00   0.46369888
8082.00   0.46818897
8084.00   0.47237021
8086.00   0.47367936
8088.00   0.48273061
8090.00   0.49916634
8092.00   0.51543039
8094.00   0.52575353
8096.00   0.53052902
8098.00   0.52743295
8100.00   0.51488070
8102.00   0.50311023
8104.00   0.48686491
8106.00   0.47487682
8108.00   0.46942410
8110.00   0.46931870
8112.00   0.47302374
8114.00   0.48135789
8116.00   0.48290925
8118.00   0.48314472
8120.00   0.48702677
8122.00   0.48346747
8124.00   0.47867778
8126.00   0.48414063
8128.00   0.49532968
8130.00   0.50510234
8132.00   0.52451946
8134.00   0.52887759
8136.00   0.51019765
8138.00   0.49071108
8140.00   0.48644982
8142.00   0.49238282
8144.00   0.49170132
8146.00   0.48768748
8148.00   0.48089175
8150.00   0.48040229
8152.00   0.48183934
8154.00   0.47783314
8156.00   0.47496563
8158.00   0.47329813
8160.00   0.47040981
8162.00   0.47045289
8164.00   0.47796084
8166.00   0.48444512
8168.00   0.48599213
8170.00   0.48643652
8172.00   0.49948497
8174.00   0.52016777
8176.00   0.54856989
8178.00   0.59045920
8180.00   0.63348243
8182.00   0.67065808
8184.00   0.69131127
8186.00   0.68911070
8188.00   0.66637036
8190.00   0.65607515
8192.00   0.65701279
8194.00   0.64049399
8196.00   0.60021964
8198.00   0.55450648
8200.00   0.52235261
8202.00   0.49047391
8204.00   0.48048103
8206.00   0.50103331
8208.00   0.50702852
8210.00   0.50205542
8212.00   0.50457564
8214.00   0.50209716
8216.00   0.48270935
8218.00   0.47406504
8220.00   0.47072160
8222.00   0.47073187
8224.00   0.47004054
8226.00   0.46904878
8228.00   0.47238350
8230.00   0.48067570
8232.00   0.47967815
8234.00   0.46744524
8236.00   0.46111619
8238.00   0.45685041
8240.00   0.47131011
8242.00   0.50035846
8244.00   0.53169450
8246.00   0.53569099
8248.00   0.51534651
8250.00   0.50416771
8252.00   0.49405721
8254.00   0.49032670
8256.00   0.49409957
8258.00   0.50618473
8260.00   0.51166952
8262.00   0.51099646
8264.00   0.51197042
8266.00   0.51744939
8268.00   0.51361072
8270.00   0.49929518
8272.00   0.48386315
8274.00   0.47497036
8276.00   0.48011880
8278.00   0.47516648
8280.00   0.46305147
8282.00   0.45002082
8284.00   0.43934560
8286.00   0.43315908
8288.00   0.43099636
8290.00   0.43665369
8292.00   0.46234480
8294.00   0.51352534
8296.00   0.53358455
8298.00   0.52814478
8300.00   0.52171594
8302.00   0.51336591
8304.00   0.50689507
8306.00   0.50313792
8308.00   0.49878910
8310.00   0.49248007
8312.00   0.48304559
8314.00   0.48120978
8316.00   0.48468737
8318.00   0.48156117
8320.00   0.47885413
8322.00   0.48021236
8324.00   0.49084738
8326.00   0.51919203
8328.00   0.53019190
8330.00   0.51386964
8332.00   0.49947920
8334.00   0.51494609
8336.00   0.54238008
8338.00   0.52923319
8340.00   0.47525615
8342.00   0.45618342
8344.00   0.46935607
8346.00   0.48483773
8348.00   0.48952150
8350.00   0.49197404
8352.00   0.48822786
8354.00   0.47385733
8356.00   0.47066551
8358.00   0.47843072
8360.00   0.48886511
8362.00   0.50236997
8364.00   0.51225373
8366.00   0.50883830
8368.00   0.49676476
8370.00   0.49047047
8372.00   0.48632275
8374.00   0.47826138
8376.00   0.46795160
8378.00   0.46430425
8380.00   0.46866170
8382.00   0.47642016
8384.00   0.47818685
8386.00   0.47450666
8388.00   0.47524080
8390.00   0.48252155
8392.00   0.49356519
8394.00   0.49747549
8396.00   0.49333273
8398.00   0.48418510
8400.00   0.46493924
8402.00   0.46068856
8404.00   0.46943425
8406.00   0.47384137
8408.00   0.47491208
8410.00   0.47304861
8412.00   0.47318164
8414.00   0.47755015
8416.00   0.48401009
8418.00   0.49287185
8420.00   0.49176258
8422.00   0.48723888
8424.00   0.48202379
8426.00   0.48025380
8428.00   0.48548129
8430.00   0.47801620
8432.00   0.45568059
8434.00   0.43528534
8436.00   0.41639988
8438.00   0.40873532
8440.00   0.42331088
8442.00   0.45787720
8444.00   0.47146787
8446.00   0.47476409
8448.00   0.47505982
8450.00   0.46591051
8452.00   0.46176893
8454.00   0.47404742
8456.00   0.49311303
8458.00   0.52150673
8460.00   0.57251376
8462.00   0.59692374
8464.00   0.59612477
8466.00   0.58582601
8468.00   0.55534911
8470.00   0.50323191
8472.00   0.47451490
8474.00   0.45126136
8476.00   0.44043289
8478.00   0.45032087
8480.00   0.46076237
8482.00   0.45814300
8484.00   0.44671106
8486.00   0.44268838
8488.00   0.44914438
8490.00   0.45302561
8492.00   0.45466180
8494.00   0.45322295
8496.00   0.45725988
8498.00   0.46157777
8500.00   0.46126670
8502.00   0.45956850
8504.00   0.45588337
8506.00   0.44821869
8508.00   0.44210538
8510.00   0.43879430
8512.00   0.43771110
8514.00   0.43499446
8516.00   0.42940249
8518.00   0.43266606
8520.00   0.44707203
8522.00   0.44696541
8524.00   0.42740583
8526.00   0.41788432
8528.00   0.42285465
8530.00   0.42915714
8532.00   0.43319486
8534.00   0.44291508
8536.00   0.44168767
8538.00   0.42161238
8540.00   0.40871571
8542.00   0.41425659
8544.00   0.43190974
8546.00   0.44159435
8548.00   0.44492213
8550.00   0.44816519
8552.00   0.45410258
8554.00   0.45501858
8556.00   0.44492480
8558.00   0.43264773
8560.00   0.42504442
8562.00   0.41938932
8564.00   0.41290286
8566.00   0.40413457
8568.00   0.39964874
8570.00   0.40098333
8572.00   0.40657288
8574.00   0.41304615
8576.00   0.42528890
8578.00   0.43588923
8580.00   0.44689812
8582.00   0.45087166
8584.00   0.45167154
8586.00   0.44817932
8588.00   0.44495985
8590.00   0.44384550
8592.00   0.42859888
8594.00   0.40012909
8596.00   0.39312139
8598.00   0.40650153
8600.00   0.41241598
8602.00   0.41528888
8604.00   0.41922131
8606.00   0.43021828
8608.00   0.45117922
8610.00   0.45274360
8612.00   0.43740541
8614.00   0.42059526
8616.00   0.39501055
8618.00   0.37881954
8620.00   0.39242858
8622.00   0.43074569
8624.00   0.44078965
8626.00   0.43613631
8628.00   0.43680869
8630.00   0.43849505
8632.00   0.42087092
8634.00   0.40292889
8636.00   0.39867549
8638.00   0.40959498
8640.00   0.43921553
8642.00   0.45323047
8644.00   0.45619023
8646.00   0.46190004
8648.00   0.46836977
8650.00   0.45721200
8652.00   0.42907086
8654.00   0.38173556
8656.00   0.36096506
8658.00   0.35681148
8660.00   0.35939308
8662.00   0.37070131
8664.00   0.38571139
8666.00   0.40307325
8668.00   0.43010333
8670.00   0.43014170
8672.00   0.39909641
8674.00   0.37989138
8676.00   0.37166598
8678.00   0.37605919
8680.00   0.38813323
8682.00   0.40051143
8684.00   0.40545516
8686.00   0.40617646
8688.00   0.40939993
8690.00   0.40867223
8692.00   0.41133739
8694.00   0.41902150
8696.00   0.42539580
8698.00   0.42366761
8700.00   0.41396987
8702.00   0.40758859
8704.00   0.40101306
8706.00   0.40175776
8708.00   0.40397851
8710.00   0.40602705
8712.00   0.41582145
8714.00   0.42897899
8716.00   0.43856440
8718.00   0.45228319
8720.00   0.46184734
8722.00   0.45102398
8724.00   0.43209210
8726.00   0.42998873
8728.00   0.43914327
8730.00   0.44279097
8732.00   0.44881266
8734.00   0.44643313
8736.00   0.43165082
8738.00   0.41563407
8740.00   0.41196059
8742.00   0.41850840
8744.00   0.41953318
8746.00   0.41881637
8748.00   0.41588862
8750.00   0.41099177
8752.00   0.41344362
8754.00   0.41481818
8756.00   0.42218116
8758.00   0.45313437
8760.00   0.50451183
8762.00   0.55365816
8764.00   0.63030480
8766.00   0.66017547
8768.00   0.64268570
8770.00   0.60806534
8772.00   0.56870446
8774.00   0.52206248
8776.00   0.50497127
8778.00   0.51238266
8780.00   0.50781214
8782.00   0.51259972
8784.00   0.52310714
8786.00   0.52873540
8788.00   0.54080346
8790.00   0.53164279
8792.00   0.49544905
8794.00   0.47105810
8796.00   0.46539141
8798.00   0.46708331
8800.00   0.46305877
8802.00   0.45602693
8804.00   0.45744246
8806.00   0.46607734
8808.00   0.47185957
8810.00   0.47997186
8812.00   0.48082721
8814.00   0.46677001
8816.00   0.45905793
8818.00   0.48710555
8820.00   0.54905859
8822.00   0.59073997
8824.00   0.64915779
8826.00   0.64451939
8828.00   0.56063886
8830.00   0.46817622
8832.00   0.44179283
8834.00   0.45932718
8836.00   0.46613501
8838.00   0.47935694
8840.00   0.48072363
8842.00   0.48558378
8844.00   0.49840721
8846.00   0.50634578
8848.00   0.50590974
8850.00   0.51003782
8852.00   0.51803043
8854.00   0.52385840
8856.00   0.52420889
8858.00   0.52509047
8860.00   0.52721459
8862.00   0.53375119
8864.00   0.55249181
8866.00   0.59203589
8868.00   0.60124883
8870.00   0.58176816
8872.00   0.55361760
8874.00   0.51141340
8876.00   0.49743789
8878.00   0.55667132
8880.00   0.68050647
8882.00   0.90444139
8884.00   1.45770073
8886.00   1.52481440
8888.00   1.05731916
8890.00   0.58137260
8892.00   0.42629829
8894.00   0.42253500
8896.00   0.40247078
8898.00   0.45783135
8900.00   0.46948956
8902.00   0.45391862
8904.00   0.43907125
8906.00   0.42895049
8908.00   0.41246051
8910.00   0.42521359
8912.00   0.47065929
8914.00   0.49068421
8916.00   0.49679852
8918.00   0.52474055
8920.00   0.53634107
8922.00   0.50826202
8924.00   0.50036915
8926.00   0.50168517
8928.00   0.50009865
8930.00   0.48486158
8932.00   0.48630781
8934.00   0.51118159
8936.00   0.54335827
8938.00   0.53787762
8940.00   0.49926546
8942.00   0.47585484
8944.00   0.45662451
8946.00   0.45265435
8948.00   0.45720951
8950.00   0.46257286
8952.00   0.47426526
8954.00   0.49001694
8956.00   0.48413117
8958.00   0.44266026
8960.00   0.44350596
8962.00   0.47644658
8964.00   0.50628443
8966.00   0.51674946
8968.00   0.50236103
8970.00   0.50169349
8972.00   0.50860386
8974.00   0.51729912
8976.00   0.51293796
8978.00   0.51095673
8980.00   0.52005009
8982.00   0.52781567
8984.00   0.53076042
8986.00   0.53345257
8988.00   0.53046271
8990.00   0.51213333
8992.00   0.50601959
8994.00   0.51694536
8996.00   0.53013578
8998.00   0.53483495
9000.00   0.53553811
9002.00   0.54083759
9004.00   0.55477366
9006.00   0.55668944
9008.00   0.54594837
9010.00   0.52759989
9012.00   0.50650218
9014.00   0.48265186
9016.00   0.47264925
9018.00   0.47345030
9020.00   0.47448307
9022.00   0.48431857
9024.00   0.49414964
9026.00   0.48924711
9028.00   0.46839014
9030.00   0.46343084
9032.00   0.46801232
9034.00   0.46948709
9036.00   0.46773846
9038.00   0.47339734
9040.00   0.47685851
9042.00   0.47129296
9044.00   0.47380456
9046.00   0.48169422
9048.00   0.49476063
9050.00   0.51277584
9052.00   0.52921021
9054.00   0.54823929
9056.00   0.56146336
9058.00   0.55529138
9060.00   0.53446934
9062.00   0.53011519
9064.00   0.53826976
9066.00   0.53631514
9068.00   0.53303429
9070.00   0.53190178
9072.00   0.52337065
9074.00   0.50627743
9076.00   0.50126806
9078.00   0.50464772
9080.00   0.51134759
9082.00   0.52080843
9084.00   0.53212225
9086.00   0.54312900
9088.00   0.54929808
9090.00   0.56586343
9092.00   0.60267857
9094.00   0.60544685
9096.00   0.56448764
9098.00   0.53592730
9100.00   0.52482960
9102.00   0.51363635
9104.00   0.51049900
9106.00   0.51437606
9108.00   0.51322497
9110.00   0.51272927
9112.00   0.51533996
9114.00   0.50777276
9116.00   0.49997883
9118.00   0.50323573
9120.00   0.51170339
9122.00   0.51492606
9124.00   0.52064437
9126.00   0.51973617
9128.00   0.50206196
9130.00   0.48332536
9132.00   0.48643321
9134.00   0.50508866
9136.00   0.51064524
9138.00   0.50785634
9140.00   0.50958119
9142.00   0.51111808
9144.00   0.51705919
9146.00   0.53462413
9148.00   0.56122944
9150.00   0.57764196
9152.00   0.59305549
9154.00   0.59057483
9156.00   0.56667712
9158.00   0.55356017
9160.00   0.55005181
9162.00   0.54498506
9164.00   0.54442605
9166.00   0.55581689
9168.00   0.55358875
9170.00   0.53148183
9172.00   0.50976104
9174.00   0.50079332
9176.00   0.49741891
9178.00   0.49993043
9180.00   0.51094262
9182.00   0.51476668
9184.00   0.51396871
9186.00   0.51552191
9188.00   0.51280239
9190.00   0.50366859
9192.00   0.49468698
9194.00   0.47683902
9196.00   0.47708900
9198.00   0.49531196
9200.00   0.51348114
9202.00   0.52541432
9204.00   0.53329626
9206.00   0.53981015
9208.00   0.53686117
9210.00   0.52264279
9212.00   0.48972981
9214.00   0.48080230
9216.00   0.49573715
9218.00   0.50322670
9220.00   0.49788816
9222.00   0.48904866
9224.00   0.48575075
9226.00   0.48798366
9228.00   0.49745122
9230.00   0.51282254
9232.00   0.52141219
9234.00   0.53651837
9236.00   0.55522612
9238.00   0.55208242
9240.00   0.52237612
9242.00   0.49840277
9244.00   0.47022645
9246.00   0.45832199
9248.00   0.45169325
9250.00   0.45088270
9252.00   0.45070100
9254.00   0.44616343
9256.00   0.45296542
9258.00   0.47375995
9260.00   0.49023084
9262.00   0.50474809
9264.00   0.50357197
9266.00   0.48384260
9268.00   0.45692213
9270.00   0.44538496
9272.00   0.43922919
9274.00   0.43821223
9276.00   0.44661018
9278.00   0.45845731
9280.00   0.47544160
9282.00   0.49934101
9284.00   0.50873168
9286.00   0.51264971
9288.00   0.50753310
9290.00   0.48140678
9292.00   0.46456464
9294.00   0.46890415
9296.00   0.48619241
9298.00   0.52503014
9300.00   0.60385573
9302.00   0.60259891
9304.00   0.52441296
9306.00   0.44849345
9308.00   0.36435024
9310.00   0.30049732
9312.00   0.30735761
9314.00   0.38142598
9316.00   0.44193025
9318.00   0.53946345
9320.00   0.57244617
9322.00   0.54853573
9324.00   0.51604407
9326.00   0.46804877
9328.00   0.40125598
9330.00   0.38554369
9332.00   0.39183150
9334.00   0.42886643
9336.00   0.54524738
9338.00   0.63183597
9340.00   0.60840589
9342.00   0.51639810
9344.00   0.48241021
9346.00   0.45910418
9348.00   0.44029103
9350.00   0.43477553
9352.00   0.43632475
9354.00   0.41767126
9356.00   0.43179482
9358.00   0.48424433
9360.00   0.56099433
9362.00   0.61855853
9364.00   0.67834270
9366.00   0.71238855
9368.00   0.75239086
9370.00   0.81786963
9372.00   0.83823851
9374.00   0.81700635
9376.00   0.78989860
9378.00   0.75377256
9380.00   0.67558858
9382.00   0.53594218
9384.00   0.43752596
9386.00   0.39562489
9388.00   0.36471757
9390.00   0.35866798
9392.00   0.38951257
9394.00   0.41105558
9396.00   0.42702214
9398.00   0.44415116
9400.00   0.46905714
9402.00   0.48522018
9404.00   0.46443227
9406.00   0.41003676
9408.00   0.40357773
9410.00   0.42554624
9412.00   0.46344326
9414.00   0.54155296
9416.00   0.60728127
9418.00   0.58857846
9420.00   0.51792410
9422.00   0.45568714
9424.00   0.35295920
9426.00   0.29018155
9428.00   0.29013731
9430.00   0.32383851
9432.00   0.36643457
9434.00   0.43165998
9436.00   0.40972021
9438.00   0.27912055
9440.00   0.22538452
9442.00   0.26089978
9444.00   0.36740841
9446.00   0.45518181
9448.00   0.53289713
9450.00   0.55108646
9452.00   0.49092773
9454.00   0.49719071
9456.00   0.60344890
9458.00   0.66034293
9460.00   0.62407848
9462.00   0.55927671
9464.00   0.51484086
9466.00   0.43487819
9468.00   0.44714192
9470.00   0.58351529
9472.00   0.69152504
9474.00   0.73332670
9476.00   0.77430326
9478.00   0.76523072
9480.00   0.65108865
9482.00   0.56238022
9484.00   0.43433203
9486.00   0.41110015
9488.00   0.50041738
9490.00   0.58477154
9492.00   0.54964086
9494.00   0.43640381
9496.00   0.39657092
9498.00   0.38807702
9500.00   0.38134825
9502.00   0.38354157
9504.00   0.39081734
9506.00   0.39086305
9508.00   0.38179468
9510.00   0.41737019
9512.00   0.51313491
9514.00   0.55757120
9516.00   0.53989312
9518.00   0.51412526
9520.00   0.52702916
9522.00   0.55039725
9524.00   0.51554328
9526.00   0.42199276
9528.00   0.38688503
9530.00   0.39462349
9532.00   0.41431637
9534.00   0.45817618
9536.00   0.51442404
9538.00   0.50479141
9540.00   0.41205256
9542.00   0.41499811
9544.00   0.49759728
9546.00   0.57846570
9548.00   0.65284908
9550.00   0.68816224
9552.00   0.64941382
9554.00   0.53733799
9556.00   0.47277297
9558.00   0.41604406
9560.00   0.37794255
9562.00   0.36541787
9564.00   0.34586574
9566.00   0.29198837
9568.00   0.21517859
9570.00   0.19923092
9572.00   0.23406459
9574.00   0.27567495
9576.00   0.33812936
9578.00   0.37347449
9580.00   0.38640246
9582.00   0.39037240
9584.00   0.39494100
9586.00   0.38520405
9588.00   0.40385999
9590.00   0.45863117
9592.00   0.50205189
9594.00   0.52617767
9596.00   0.54275826
9598.00   0.54263122
9600.00   0.50688143
9602.00   0.52767247
9604.00   0.62751202
9606.00   0.64485130
9608.00   0.57187217
9610.00   0.50755569
9612.00   0.46155590
9614.00   0.42852518
9616.00   0.41170169
9618.00   0.40776964
9620.00   0.40435785
9622.00   0.42198274
9624.00   0.42955372
9626.00   0.43485054
9628.00   0.45505829
9630.00   0.46620943
9632.00   0.47303958
9634.00   0.47712350
9636.00   0.48178145
9638.00   0.47840461
9640.00   0.45763491
9642.00   0.44131020
9644.00   0.45482330
9646.00   0.47488041
9648.00   0.48792744
9650.00   0.50211357
9652.00   0.53253965
9654.00   0.56623289
9656.00   0.58356711
9658.00   0.56046683
9660.00   0.49077404
9662.00   0.45482288
9664.00   0.42414770
9666.00   0.42327730
9668.00   0.44970152
9670.00   0.48662974
9672.00   0.51392204
9674.00   0.52204351
9676.00   0.50090711
9678.00   0.44474199
9680.00   0.41693403
9682.00   0.39949259
9684.00   0.38566849
9686.00   0.39557818
9688.00   0.42622954
9690.00   0.42064789
9692.00   0.38536194
9694.00   0.36543134
9696.00   0.34204608
9698.00   0.34800552
9700.00   0.41378576
9702.00   0.50362982
9704.00   0.50316520
9706.00   0.42086865
9708.00   0.38575974
9710.00   0.36845751
9712.00   0.38345055
9714.00   0.41141658
9716.00   0.42849311
9718.00   0.43037939
9720.00   0.39218269
9722.00   0.37546544
9724.00   0.36715785
9726.00   0.38994467
9728.00   0.40779042
9730.00   0.41045590
9732.00   0.42701149
9734.00   0.43501066
9736.00   0.43530184
9738.00   0.42957838
9740.00   0.45766522
9742.00   0.51036805
9744.00   0.54202685
9746.00   0.56122348
9748.00   0.56806600
9750.00   0.55346316
9752.00   0.51080209
9754.00   0.47038823
9756.00   0.41669747
9758.00   0.39144355
9760.00   0.37656668
9762.00   0.38011447
9764.00   0.41061927
9766.00   0.44937265
9768.00   0.46788229
9770.00   0.47875828
9772.00   0.50035252
9774.00   0.49633668
9776.00   0.48086037
9778.00   0.49159783
9780.00   0.50597517
9782.00   0.52327237
9784.00   0.55311352
9786.00   0.58473307
9788.00   0.61839157
9790.00   0.60990655
9792.00   0.54075086
9794.00   0.41856092
9796.00   0.36318214
9798.00   0.35262677
9800.00   0.34700586
9802.00   0.33217183
9804.00   0.31916240
9806.00   0.34421022
9808.00   0.39979361
9810.00   0.44493012
9812.00   0.49516346
9814.00   0.50255598
9816.00   0.46028586
9818.00   0.43771897
9820.00   0.42718126
9822.00   0.43290776
9824.00   0.46164057
9826.00   0.50310856
9828.00   0.49034591
9830.00   0.41388936
9832.00   0.38428797
9834.00   0.37378398
9836.00   0.37887157
9838.00   0.42004329
9840.00   0.49262190
9842.00   0.50488487
9844.00   0.45838368
9846.00   0.47091728
9848.00   0.56223439
9850.00   0.59710196
9852.00   0.53371793
9854.00   0.44493553
9856.00   0.41407974
9858.00   0.40938520
9860.00   0.39044905
9862.00   0.37334815
9864.00   0.35479087
9866.00   0.33687793
9868.00   0.34493950
9870.00   0.39402665
9872.00   0.49946024
9874.00   0.54431388
9876.00   0.54420537
9878.00   0.51931626
9880.00   0.48983730
9882.00   0.46750195
9884.00   0.44997923
9886.00   0.43910418
9888.00   0.44619900
9890.00   0.48742396
9892.00   0.49447832
9894.00   0.47230169
9896.00   0.44467153
9898.00   0.42716068
9900.00   0.36186006
9902.00   0.31832883
9904.00   0.27276330
9906.00   0.29923739
9908.00   0.38844243
9910.00   0.45557050
9912.00   0.40981808
9914.00   0.29847802
9916.00   0.31555744
9918.00   0.39668940
9920.00   0.45041570
9922.00   0.55853467
9924.00   0.62090507
9926.00   0.53332229
9928.00   0.40092292
9930.00   0.35737207
9932.00   0.35835262
9934.00   0.42805631
9936.00   0.62624356
9938.00   0.69171168
9940.00   0.71080825
9942.00   0.78136170
9944.00   0.77936655
9946.00   0.74550629
9948.00   0.65429181
9950.00   0.40903050
9952.00   0.27709317
9954.00   0.44531191
9956.00   0.68871978
9958.00   0.62971804
9960.00   0.34519627
9962.00   0.27378407
9964.00   0.30937491
9966.00   0.33838482
9968.00   0.39418732
9970.00   0.42729528
9972.00   0.37258177
9974.00   0.27775020
9976.00   0.24902829
9978.00   0.24877841
9980.00   0.26888283
9982.00   0.31850240
9984.00   0.37910330
9986.00   0.48026749
9988.00   0.53973946
9990.00   0.48859675
9992.00   0.36025243
9994.00   0.32762641
9996.00   0.35719168
9998.00   0.36413333
10000.00   0.37203018
10002.00   0.40652373
10004.00   0.44016103
10006.00   0.48877242
10008.00   0.47091061
10010.00   0.35507787
10012.00   0.29613534
10014.00   0.35920870
10016.00   0.46310572
10018.00   0.47316273
10020.00   0.45809567
10022.00   0.45167297
10024.00   0.40880749
10026.00   0.38304167
10028.00   0.42360094
10030.00   0.49993384
10032.00   0.53438741
10034.00   0.55013192
10036.00   0.56665823
10038.00   0.58486950
10040.00   0.58193105
10042.00   0.57289088
10044.00   0.51193589
10046.00   0.39089501
10048.00   0.28644031
10050.00   0.25475650
10052.00   0.25600243
10054.00   0.25691199
10056.00   0.27577437
10058.00   0.31669898
10060.00   0.35163176
10062.00   0.37771048
10064.00   0.46384722
10066.00   0.59133743
10068.00   0.60578918
10070.00   0.49781679
10072.00   0.50773942
10074.00   0.60800681
10076.00   0.62085046
10078.00   0.55359557
10080.00   0.48122504
10082.00   0.42815489
10084.00   0.35361214
10086.00   0.31750141
10088.00   0.32704682
10090.00   0.40476592
10092.00   0.51597007
10094.00   0.62364635
10096.00   0.66883382
10098.00   0.65316983
10100.00   0.61961588
10102.00   0.56129089
10104.00   0.52640992
10106.00   0.46506694
10108.00   0.41584304
10110.00   0.42877655
10112.00   0.50108695
10114.00   0.57546398
10116.00   0.70813861
10118.00   0.75706217
10120.00   0.74777305
10122.00   0.66493706
10124.00   0.51850942
10126.00   0.30863545
10128.00   0.23901147
10130.00   0.29006904
10132.00   0.30831955
10134.00   0.28900851
10136.00   0.24282398
10138.00   0.22110125
10140.00   0.22741725
10142.00   0.24822502
10144.00   0.27348840
10146.00   0.38412705
10148.00   0.63424045
10150.00   0.76754656
10152.00   0.77474472
10154.00   0.81564906
10156.00   0.81542689
10158.00   0.71471629
10160.00   0.59934020
10162.00   0.44708605
10164.00   0.40187363
10166.00   0.45433697
10168.00   0.55097234
10170.00   0.59820387
10172.00   0.62016693
10174.00   0.59025922
10176.00   0.41969696
10178.00   0.45234792
10180.00   0.69610164
10182.00   0.84801656
10184.00   0.87208825
10186.00   0.91093719
10188.00   0.78665420
10190.00   0.43243855
10192.00   0.23469011
10194.00   0.16961202
10196.00   0.13526064
10198.00   0.20099283
10200.00   0.43142104
10202.00   0.52608766
10204.00   0.55819324
10206.00   0.54752037
10208.00   0.46962537
10210.00   0.42035356
10212.00   0.50771992
10214.00   0.66019163
10216.00   0.66929446
10218.00   0.59169647
10220.00   0.53226182
10222.00   0.40585470
10224.00   0.39836814
10226.00   0.54141642
10228.00   0.67021087
10230.00   0.77554888
10232.00   0.97960663
10234.00   0.92109948
10236.00   0.51098540
10238.00   0.28342755
10240.00   0.20175526
10242.00   0.18925463
10244.00   0.35739511
10246.00   0.66569901
10248.00   0.79831612
10250.00   0.86705005
10252.00   0.90995869
10254.00   0.85625300
10256.00   0.75290939
10258.00   0.63536543
10260.00   0.48264861
10262.00   0.43424155
10264.00   0.47214997
10266.00   0.43381739
10268.00   0.30142952
10270.00   0.28086214
10272.00   0.31680946
10274.00   0.35625605
10276.00   0.45950633
10278.00   0.61744118
10280.00   0.62517783
10282.00   0.47229756
10284.00   0.41125485
10286.00   0.33683136
10288.00   0.44187172
10290.00   0.78482729
10292.00   1.25411254
10294.00   1.35587987
10296.00   1.20764783
10298.00   0.98752347
10300.00   0.57784607
10302.00   0.35565871
10304.00   0.39892949
10306.00   0.57522795
10308.00   0.62585065
10310.00   0.61479917
10312.00   0.65621451
10314.00   0.80358607
10316.00   0.91282508
10318.00   0.82720065
10320.00   0.63455325
10322.00   0.46102522
10324.00   0.13475522
10326.00   0.06995953
10328.00   0.40013783
10330.00   0.70083582
10332.00   0.69001719
10334.00   0.51339699
10336.00   0.50505008
10338.00   0.59640992
10340.00   0.58462837
10342.00   0.45505163
10344.00   0.36669226
10346.00   0.34458864
10348.00   0.41674930
10350.00   0.52524558
10352.00   0.66157717
10354.00   0.67870396
10356.00   0.57890308
10358.00   0.49718137
10360.00   0.46044256
10362.00   0.52745144
10364.00   0.59694827
10366.00   0.68394188
10368.00   0.66365173
10370.00   0.51321749
10372.00   0.56112061
10374.00   0.85058299
10376.00   0.93496531
10378.00   0.86548993
10380.00   0.61480087
10382.00   0.31786809
10384.00   -0.06370030
10386.00   -0.06909418
10388.00   0.20530492
10390.00   0.40038933
10392.00   0.66839513
10394.00   0.90789807
10396.00   0.89616153
10398.00   0.73374179
10400.00   0.64134607
10402.00   0.44748177
10404.00   0.39239327
10406.00   0.73147707
10408.00   1.00835226
10410.00   0.81043722
10412.00   0.36481596
10414.00   0.11752965
10416.00   -0.17513109
10418.00   -0.23199648
10420.00   0.03328643
10422.00   0.34396502
10424.00   0.55288897
10426.00   0.75774065
10428.00   0.85495612
10430.00   0.86989000
10432.00   0.78761870
10434.00   0.52861221
10436.00   0.38856688
10438.00   0.46786265
10440.00   0.62924421
10442.00   0.73427904
10444.00   0.89389321
10446.00   0.87336683
10448.00   0.61067209
10450.00   0.41922471
10452.00   0.30519179
10454.00   0.19471787
10456.00   0.23094925
10458.00   0.48223977
10460.00   0.57795580
10462.00   0.56879938
10464.00   0.49837714
10466.00   0.40477397
10468.00   0.22730843
10470.00   0.15114725
10472.00   0.27977998
10474.00   0.32313997
10476.00   0.30572817
10478.00   0.31584729
10480.00   0.46073231
10482.00   0.55681506
10484.00   0.52126887
10486.00   0.47461480
10488.00   0.47352912
10490.00   0.45600553
10492.00   0.47027765
10494.00   0.60802606
10496.00   0.72880390
10498.00   0.70572621
10500.00   0.57119693
10502.00   0.52183899
10504.00   0.53102627
10506.00   0.52062340
10508.00   0.49319762
10510.00   0.42593391
10512.00   0.30099788
10514.00   0.18015206
10516.00   0.22773407
10518.00   0.41703479
10520.00   0.60698910
10522.00   0.93914822
10524.00   1.07168594
10526.00   0.98832995
10528.00   0.84093022
10530.00   0.66118446
10532.00   0.34159324
10534.00   0.26993480
10536.00   0.45903763
10538.00   0.48283255
10540.00   0.27114217
10542.00   0.12628993
10544.00   0.20590636
10546.00   0.43132359
10548.00   0.56668979
10550.00   0.70582712
10552.00   0.72610232
10554.00   0.62526798
10556.00   0.55306488
10558.00   0.51499321
10560.00   0.53175935
10562.00   0.53211629
10564.00   0.48487407
10566.00   0.44544813
10568.00   0.45437461
10570.00   0.46953285
10572.00   0.39182829
10574.00   0.35917583
10576.00   0.43558049
10578.00   0.54240847
10580.00   0.56004706
10582.00   0.54034150
10584.00   0.50321603
10586.00   0.38655783
10588.00   0.29524810
10590.00   0.24198579
10592.00   0.14620205
10594.00   0.20957468
10596.00   0.45982745
10598.00   0.61550751
10600.00   0.69938013
10602.00   0.73826367
10604.00   0.63575297
10606.00   0.36524671
10608.00   0.25702061
10610.00   0.20215577
10612.00   0.23735313
10614.00   0.40354333
10616.00   0.57937624
10618.00   0.65633349
10620.00   0.68670286
10622.00   0.70605561
10624.00   0.65249798
10626.00   0.59409919
10628.00   0.54738216
10630.00   0.51043496
10632.00   0.41064428
10634.00   0.34469084
10636.00   0.37101533
10638.00   0.45707762
10640.00   0.45060512
10642.00   0.35379153
10644.00   0.33901514
10646.00   0.35713275
10648.00   0.33709371
10650.00   0.32693465
10652.00   0.32655342
10654.00   0.28836563
10656.00   0.20073851
10658.00   0.15268227
10660.00   0.14029999
10662.00   0.15487636
10664.00   0.20164752
10666.00   0.28861587
10668.00   0.33012432
10670.00   0.34535301
10672.00   0.34892777
10674.00   0.33599774
10676.00   0.36499873
10678.00   0.35628164
10680.00   0.26244372
10682.00   0.26582096
10684.00   0.36238454
10686.00   0.41984977
10688.00   0.46785002
10690.00   0.43916538
10692.00   0.36605538
10694.00   0.30188238
10696.00   0.30844596
10698.00   0.45849750
10700.00   0.52702919
10702.00   0.53041375
10704.00   0.50666557
10706.00   0.61147001
10708.00   0.69289377
10710.00   0.57819994
10712.00   0.34539387
10714.00   0.29808991
10716.00   0.34428293
10718.00   0.44911416
10720.00   0.71141252
10722.00   0.85575747
10724.00   0.76811939
10726.00   0.53176871
10728.00   0.43249853
10730.00   0.39952301
10732.00   0.43448336
10734.00   0.55125096
10736.00   0.58107321
10738.00   0.58392893
10740.00   0.51183154
10742.00   0.38346645
10744.00   0.22298514
10746.00   0.20126543
10748.00   0.29036081
10750.00   0.36164864
10752.00   0.41957942
10754.00   0.40927976
10756.00   0.38287787
10758.00   0.32332511
10760.00   0.30856187
10762.00   0.35521962
10764.00   0.33093724
10766.00   0.18836002
10768.00   0.12342165
10770.00   0.22107865
10772.00   0.39750223
10774.00   0.38779928
10776.00   0.21172626
10778.00   0.17749315
10780.00   0.23788226
10782.00   0.33304974
10784.00   0.54921308
10786.00   0.86613306
10788.00   0.79356042
10790.00   0.33346272
10792.00   0.13514451
10794.00   0.14008775
10796.00   0.24910252
10798.00   0.40859009
10800.00   0.55645469
10802.00   0.58346844
10804.00   0.54728502
10806.00   0.53099671
10808.00   0.49083033
10810.00   0.45402279
10812.00   0.44509658
10814.00   0.39933990
10816.00   0.40780004
10818.00   0.53189479
10820.00   0.62770718
10822.00   0.75678360
10824.00   0.77506191
10826.00   0.73448652
10828.00   0.69581074
10830.00   0.59051873
10832.00   0.59051873
