# File created by shivutils (I.Shivvers)
# Blotched regions marked with a #.
# wl(A)   flm    er(optional)
3426.00   0.34271097
3428.00   0.39618134
3430.00   0.29967573
3432.00   0.32949528
3434.00   0.41154489
3436.00   0.34171724
3438.00   0.44104171
3440.00   0.43114802
3442.00   0.44237751
3444.00   0.36303973
3446.00   0.42724857
3448.00   0.40320262
3450.00   0.45535451
3452.00   0.47243601
3454.00   0.32975116
3456.00   0.38149393
3458.00   0.38520765
3460.00   0.46855065
3462.00   0.39579150
3464.00   0.39511085
3466.00   0.40811193
3468.00   0.31848776
3470.00   0.41961044
3472.00   0.41874018
3474.00   0.42584866
3476.00   0.47021174
3478.00   0.37626612
3480.00   0.43771303
3482.00   0.35495627
3484.00   0.43996719
3486.00   0.40938851
3488.00   0.51548952
3490.00   0.51460320
3492.00   0.47884220
3494.00   0.46048918
3496.00   0.50818509
3498.00   0.45541644
3500.00   0.49390906
3502.00   0.46669838
3504.00   0.50122559
3506.00   0.46439499
3508.00   0.45076200
3510.00   0.46830603
3512.00   0.44623989
3514.00   0.52078879
3516.00   0.49706262
3518.00   0.54090303
3520.00   0.49267465
3522.00   0.57929564
3524.00   0.59806144
3526.00   0.70492113
3528.00   0.64031416
3530.00   0.56336302
3532.00   0.55567700
3534.00   0.66104257
3536.00   0.64143455
3538.00   0.62736613
3540.00   0.71725029
3542.00   0.67007333
3544.00   0.67757791
3546.00   0.68839872
3548.00   0.72659677
3550.00   0.75389057
3552.00   0.69898599
3554.00   0.71379954
3556.00   0.73576146
3558.00   0.78754163
3560.00   0.78588003
3562.00   0.97587943
3564.00   0.92414159
3566.00   0.79953963
3568.00   0.84310544
3570.00   0.80926484
3572.00   0.82980877
3574.00   0.87580794
3576.00   0.88522702
3578.00   0.74518353
3580.00   0.90414208
3582.00   0.96792877
3584.00   0.87361312
3586.00   0.83546841
3588.00   0.89391798
3590.00   0.97848147
3592.00   0.96328646
3594.00   0.89136517
3596.00   0.89466161
3598.00   0.92131758
3600.00   0.96666592
3602.00   0.93994653
3604.00   0.91264641
3606.00   0.89436316
3608.00   0.92353225
3610.00   0.98525906
3612.00   1.01835811
3614.00   0.95554554
3616.00   0.97013241
3618.00   0.86943054
3620.00   0.91856879
3622.00   0.82338947
3624.00   0.79986465
3626.00   0.81820166
3628.00   0.86439174
3630.00   0.79563874
3632.00   0.86532235
3634.00   0.79076058
3636.00   0.78213423
3638.00   0.72108501
3640.00   0.72750419
3642.00   0.75922114
3644.00   0.72069430
3646.00   0.71637976
3648.00   0.77265459
3650.00   0.80706161
3652.00   0.76329356
3654.00   0.65234095
3656.00   0.66364700
3658.00   0.67886686
3660.00   0.71039885
3662.00   0.64460856
3664.00   0.66146952
3666.00   0.65573359
3668.00   0.59557867
3670.00   0.66797847
3672.00   0.59471041
3674.00   0.61166513
3676.00   0.64411575
3678.00   0.59368503
3680.00   0.63483012
3682.00   0.60135388
3684.00   0.59762162
3686.00   0.67746532
3688.00   0.58895099
3690.00   0.54772329
3692.00   0.57734650
3694.00   0.58259660
3696.00   0.57083678
3698.00   0.46880054
3700.00   0.44088790
3702.00   0.47788250
3704.00   0.52671033
3706.00   0.42573923
3708.00   0.40398222
3710.00   0.41506732
3712.00   0.38763168
3714.00   0.37398571
3716.00   0.36285323
3718.00   0.39397869
3720.00   0.39426628
3722.00   0.39271644
3724.00   0.34771422
3726.00   0.36836106
3728.00   0.30027631
3730.00   0.32745048
3732.00   0.31683445
3734.00   0.33182770
3736.00   0.32943213
3738.00   0.30712116
3740.00   0.33447471
3742.00   0.30214930
3744.00   0.27116278
3746.00   0.29270217
3748.00   0.30323347
3750.00   0.31403190
3752.00   0.28759056
3754.00   0.25954783
3756.00   0.23815180
3758.00   0.25934324
3760.00   0.27765965
3762.00   0.25991160
3764.00   0.22978283
3766.00   0.26332134
3768.00   0.28430384
3770.00   0.25413835
3772.00   0.30253425
3774.00   0.26733133
3776.00   0.28980023
3778.00   0.28082737
3780.00   0.30383772
3782.00   0.29611596
3784.00   0.30570441
3786.00   0.30930245
3788.00   0.29838648
3790.00   0.29071549
3792.00   0.32104862
3794.00   0.29473874
3796.00   0.30200112
3798.00   0.30603614
3800.00   0.35031557
3802.00   0.38361895
3804.00   0.37198815
3806.00   0.35962653
3808.00   0.36381161
3810.00   0.34905249
3812.00   0.38312206
3814.00   0.36635664
3816.00   0.40116751
3818.00   0.42492810
3820.00   0.41501135
3822.00   0.43009159
3824.00   0.48799753
3826.00   0.38571161
3828.00   0.41104501
3830.00   0.40053353
3832.00   0.45306838
3834.00   0.51722407
3836.00   0.48678109
3838.00   0.53088093
3840.00   0.54614717
3842.00   0.51910573
3844.00   0.54410386
3846.00   0.58110988
3848.00   0.57102913
3850.00   0.62842393
3852.00   0.57846838
3854.00   0.65137964
3856.00   0.68964881
3858.00   0.64956796
3860.00   0.67817229
3862.00   0.72912824
3864.00   0.72576940
3866.00   0.76383352
3868.00   0.73626328
3870.00   0.73732316
3872.00   0.80403280
3874.00   0.84829777
3876.00   0.83746260
3878.00   0.88044840
3880.00   0.85994816
3882.00   0.91172856
3884.00   0.93743032
3886.00   0.95349824
3888.00   1.00829327
3890.00   1.06370723
3892.00   1.05344272
3894.00   1.03257167
3896.00   1.11522818
3898.00   1.09988785
3900.00   1.18325663
3902.00   1.18007863
3904.00   1.25666821
3906.00   1.31076491
3908.00   1.36280859
3910.00   1.31259000
3912.00   1.37538588
3914.00   1.40148115
3916.00   1.43369675
3918.00   1.46139348
3920.00   1.49443948
3922.00   1.50408602
3924.00   1.51776886
3926.00   1.50697601
3928.00   1.57539272
3930.00   1.54811847
3932.00   1.36784530
3934.00   1.36025333
3936.00   1.60830414
3938.00   1.71220303
3940.00   1.70620084
3942.00   1.78740239
3944.00   1.70690012
3946.00   1.72248900
3948.00   1.80771244
3950.00   1.79158330
3952.00   1.78525579
3954.00   1.81788123
3956.00   1.79572356
3958.00   1.82273424
3960.00   1.84548903
3962.00   1.72585356
3964.00   1.78888381
3966.00   1.76473784
3968.00   1.56987941
3970.00   1.76047873
3972.00   1.80023515
3974.00   1.74646997
3976.00   1.76035810
3978.00   1.76264989
3980.00   1.75178766
3982.00   1.67667735
3984.00   1.59605229
3986.00   1.49257076
3988.00   1.65240610
3990.00   1.72695780
3992.00   1.65885592
3994.00   1.68341267
3996.00   1.62892997
3998.00   1.67033970
4000.00   1.61196721
4002.00   1.63074768
4004.00   1.58447385
4006.00   1.49847460
4008.00   1.57533848
4010.00   1.56372571
4012.00   1.49126422
4014.00   1.51625049
4016.00   1.51203835
4018.00   1.45135975
4020.00   1.34415841
4022.00   1.33850563
4024.00   1.43522215
4026.00   1.43775105
4028.00   1.40654325
4030.00   1.43213248
4032.00   1.41229916
4034.00   1.41099584
4036.00   1.41431653
4038.00   1.38197005
4040.00   1.36234581
4042.00   1.41183829
4044.00   1.39386702
4046.00   1.42147100
4048.00   1.45747638
4050.00   1.41402936
4052.00   1.44962323
4054.00   1.44031310
4056.00   1.45004106
4058.00   1.40859842
4060.00   1.46024609
4062.00   1.41989779
4064.00   1.45301294
4066.00   1.47593677
4068.00   1.45106292
4070.00   1.45265651
4072.00   1.47504294
4074.00   1.45207369
4076.00   1.49707115
4078.00   1.47164023
4080.00   1.49068868
4082.00   1.52734578
4084.00   1.48376942
4086.00   1.44390678
4088.00   1.57941031
4090.00   1.60000801
4092.00   1.54627740
4094.00   1.59867811
4096.00   1.67368603
4098.00   1.65109062
4100.00   1.64051211
4102.00   1.71786928
4104.00   1.66892362
4106.00   1.72210789
4108.00   1.71386671
4110.00   1.68340766
4112.00   1.72377777
4114.00   1.71233463
4116.00   1.79484153
4118.00   1.73258233
4120.00   1.75475156
4122.00   1.77320635
4124.00   1.74950540
4126.00   1.76467311
4128.00   1.75862277
4130.00   1.77417922
4132.00   1.79787469
4134.00   1.78792417
4136.00   1.81028986
4138.00   1.80166411
4140.00   1.81544268
4142.00   1.76626980
4144.00   1.76043415
4146.00   1.75707006
4148.00   1.73839617
4150.00   1.70853031
4152.00   1.72981179
4154.00   1.71866739
4156.00   1.75063670
4158.00   1.77418017
4160.00   1.74220669
4162.00   1.71862102
4164.00   1.73062384
4166.00   1.77923822
4168.00   1.74107325
4170.00   1.70128798
4172.00   1.70300710
4174.00   1.70375693
4176.00   1.69831991
4178.00   1.69168723
4180.00   1.64606035
4182.00   1.69436908
4184.00   1.66419244
4186.00   1.62283409
4188.00   1.64837146
4190.00   1.70032167
4192.00   1.58811617
4194.00   1.59728670
4196.00   1.62688613
4198.00   1.63824046
4200.00   1.64541090
4202.00   1.66955066
4204.00   1.60109317
4206.00   1.60935628
4208.00   1.58128583
4210.00   1.61605668
4212.00   1.57019150
4214.00   1.63992763
4216.00   1.62482989
4218.00   1.67302513
4220.00   1.57860088
4222.00   1.56400216
4224.00   1.61347961
4226.00   1.59476805
4228.00   1.56759262
4230.00   1.65195429
4232.00   1.62007737
4234.00   1.65471268
4236.00   1.60043311
4238.00   1.61687267
4240.00   1.61849344
4242.00   1.64652991
4244.00   1.66553605
4246.00   1.63275921
4248.00   1.62876451
4250.00   1.60686743
4252.00   1.58418584
4254.00   1.57517219
4256.00   1.60280621
4258.00   1.57104230
4260.00   1.53128350
4262.00   1.55890000
4264.00   1.49589896
4266.00   1.51422620
4268.00   1.50003576
4270.00   1.51380813
4272.00   1.46360433
4274.00   1.44330549
4276.00   1.43282413
4278.00   1.43115306
4280.00   1.44611430
4282.00   1.39478898
4284.00   1.39422572
4286.00   1.36463392
4288.00   1.37743974
4290.00   1.38210392
4292.00   1.36452961
4294.00   1.34847331
4296.00   1.31535113
4298.00   1.30801058
4300.00   1.30370092
4302.00   1.28084195
4304.00   1.32573175
4306.00   1.30115211
4308.00   1.26126981
4310.00   1.22464752
4312.00   1.20313704
4314.00   1.20012081
4316.00   1.17634118
4318.00   1.16593242
4320.00   1.18820012
4322.00   1.13601613
4324.00   1.13662243
4326.00   1.11250854
4328.00   1.10216355
4330.00   1.09748578
4332.00   1.07435405
4334.00   1.05937243
4336.00   1.08987260
4338.00   0.99328780
4340.00   1.00769877
4342.00   0.99372709
4344.00   1.00151634
4346.00   1.04236579
4348.00   0.98842382
4350.00   0.95244646
4352.00   0.96460372
4354.00   1.01205909
4356.00   0.96924353
4358.00   0.94271463
4360.00   0.96056372
4362.00   0.97519499
4364.00   0.96566993
4366.00   0.97967321
4368.00   0.97922337
4370.00   0.95219719
4372.00   0.92708558
4374.00   0.95167840
4376.00   0.94345117
4378.00   0.96740192
4380.00   0.94679123
4382.00   0.94456649
4384.00   0.95155114
4386.00   0.93319130
4388.00   0.95501715
4390.00   0.94902354
4392.00   0.95639348
4394.00   0.96467042
4396.00   0.96537757
4398.00   0.97714096
4400.00   0.97509944
4402.00   0.94721758
4404.00   0.99251825
4406.00   0.99720740
4408.00   1.00358975
4410.00   0.97201252
4412.00   0.92583901
4414.00   0.90529728
4416.00   0.92053473
4418.00   0.97649729
4420.00   0.95382220
4422.00   0.94014144
4424.00   0.94169277
4426.00   0.97478747
4428.00   0.95499212
4430.00   0.96777284
4432.00   0.98866570
4434.00   1.01536286
4436.00   1.03852510
4438.00   1.04146564
4440.00   1.07375169
4442.00   1.07176042
4444.00   1.07788944
4446.00   1.04768789
4448.00   1.11852443
4450.00   1.11082542
4452.00   1.18802798
4454.00   1.11647713
4456.00   1.12639487
4458.00   1.16468549
4460.00   1.25171697
4462.00   1.22681963
4464.00   1.23266685
4466.00   1.25611973
4468.00   1.27025104
4470.00   1.27103829
4472.00   1.28140914
4474.00   1.30373573
4476.00   1.31550348
4478.00   1.30071676
4480.00   1.32403851
4482.00   1.34494591
4484.00   1.34711480
4486.00   1.40557826
4488.00   1.37754726
4490.00   1.39478385
4492.00   1.42454433
4494.00   1.40877008
4496.00   1.45173609
4498.00   1.44028878
4500.00   1.44760418
4502.00   1.46369767
4504.00   1.47488022
4506.00   1.53708649
4508.00   1.48299742
4510.00   1.53958559
4512.00   1.53500998
4514.00   1.53927445
4516.00   1.55773675
4518.00   1.52789831
4520.00   1.59825540
4522.00   1.57895517
4524.00   1.61497211
4526.00   1.60101807
4528.00   1.58448875
4530.00   1.58905578
4532.00   1.67854714
4534.00   1.67634571
4536.00   1.68578255
4538.00   1.66979635
4540.00   1.68107259
4542.00   1.70299399
4544.00   1.75186181
4546.00   1.75623715
4548.00   1.75076842
4550.00   1.74253321
4552.00   1.81918979
4554.00   1.79973602
4556.00   1.81777704
4558.00   1.83539987
4560.00   1.78694916
4562.00   1.83487391
4564.00   1.84533465
4566.00   1.86606979
4568.00   1.90761626
4570.00   1.86624014
4572.00   1.85118830
4574.00   1.90772212
4576.00   1.94709361
4578.00   1.91225529
4580.00   1.90803266
4582.00   1.89049447
4584.00   1.91315806
4586.00   1.87620330
4588.00   1.87030852
4590.00   1.85315180
4592.00   1.84811783
4594.00   1.91580641
4596.00   1.86761642
4598.00   1.86342490
4600.00   1.89806843
4602.00   1.87357557
4604.00   1.91957116
4606.00   1.86357045
4608.00   1.85762262
4610.00   1.88913560
4612.00   1.84044635
4614.00   1.82072175
4616.00   1.90338099
4618.00   1.86615646
4620.00   1.88244808
4622.00   1.84696269
4624.00   1.82417727
4626.00   1.82699692
4628.00   1.89394200
4630.00   1.83205402
4632.00   1.84274697
4634.00   1.79421151
4636.00   1.82577658
4638.00   1.83647621
4640.00   1.84031963
4642.00   1.85742903
4644.00   1.83936465
4646.00   1.82293892
4648.00   1.90686715
4650.00   1.81663835
4652.00   1.82083511
4654.00   1.80570090
4656.00   1.84601343
4658.00   1.80726361
4660.00   1.82173526
4662.00   1.78925955
4664.00   1.81611240
4666.00   1.79773903
4668.00   1.78641188
4670.00   1.75447416
4672.00   1.75846744
4674.00   1.72860181
4676.00   1.74503994
4678.00   1.69034564
4680.00   1.70093417
4682.00   1.71517372
4684.00   1.75249898
4686.00   1.72610927
4688.00   1.67470455
4690.00   1.69518328
4692.00   1.63922048
4694.00   1.63792229
4696.00   1.64001548
4698.00   1.60799611
4700.00   1.60996032
4702.00   1.55491149
4704.00   1.56720531
4706.00   1.52943003
4708.00   1.53247201
4710.00   1.51743269
4712.00   1.49323773
4714.00   1.51861024
4716.00   1.48207021
4718.00   1.49596620
4720.00   1.44581664
4722.00   1.43092799
4724.00   1.43915939
4726.00   1.39922261
4728.00   1.40656078
4730.00   1.35447681
4732.00   1.37846339
4734.00   1.38387454
4736.00   1.34728909
4738.00   1.32468295
4740.00   1.31534708
4742.00   1.31744885
4744.00   1.27170622
4746.00   1.24920118
4748.00   1.23339176
4750.00   1.21670341
4752.00   1.21724260
4754.00   1.21686625
4756.00   1.20462167
4758.00   1.16922903
4760.00   1.16216290
4762.00   1.12698185
4764.00   1.12957084
4766.00   1.14073801
4768.00   1.14377022
4770.00   1.12760997
4772.00   1.13810170
4774.00   1.14401257
4776.00   1.15067768
4778.00   1.15116692
4780.00   1.11768162
4782.00   1.11888409
4784.00   1.07145154
4786.00   1.10158682
4788.00   1.07861876
4790.00   1.08103669
4792.00   1.08555150
4794.00   1.10362148
4796.00   1.15464437
4798.00   1.11098886
4800.00   1.11646223
4802.00   1.12610734
4804.00   1.15007627
4806.00   1.10281885
4808.00   1.09692776
4810.00   1.15449464
4812.00   1.14138246
4814.00   1.11787498
4816.00   1.12076712
4818.00   1.09433103
4820.00   1.08908820
4822.00   1.08868325
4824.00   1.05982590
4826.00   1.04211318
4828.00   1.06437922
4830.00   1.05893743
4832.00   1.05840909
4834.00   1.02411199
4836.00   0.99987590
4838.00   1.04947734
4840.00   0.97917646
4842.00   0.99855280
4844.00   0.99293679
4846.00   0.99747998
4848.00   1.02023208
4850.00   1.01453769
4852.00   1.01573050
4854.00   0.98078626
4856.00   0.99369246
4858.00   0.98209280
4860.00   0.98456532
4862.00   1.02134597
4864.00   0.96922493
4866.00   0.96819365
4868.00   0.92448133
4870.00   0.94021356
4872.00   0.92547387
4874.00   0.94184428
4876.00   0.92943394
4878.00   0.90558141
4880.00   0.92284960
4882.00   0.90928042
4884.00   0.89573008
4886.00   0.91611105
4888.00   0.90882981
4890.00   0.92864281
4892.00   0.90349472
4894.00   0.90827250
4896.00   0.92962819
4898.00   0.94178557
4900.00   0.90707487
4902.00   0.93745279
4904.00   0.91730082
4906.00   0.91980141
4908.00   0.92803091
4910.00   0.92621231
4912.00   0.91459370
4914.00   0.95243412
4916.00   0.95734936
4918.00   0.95756292
4920.00   0.95626754
4922.00   0.98615319
4924.00   0.99545979
4926.00   1.01610804
4928.00   1.02384472
4930.00   1.05142295
4932.00   1.08960080
4934.00   1.08507764
4936.00   1.07110417
4938.00   1.11031532
4940.00   1.12442565
4942.00   1.12081277
4944.00   1.13448393
4946.00   1.16576946
4948.00   1.18766689
4950.00   1.18967128
4952.00   1.20828354
4954.00   1.18564618
4956.00   1.19174445
4958.00   1.18977833
4960.00   1.20455635
4962.00   1.24320853
4964.00   1.19979489
4966.00   1.19782162
4968.00   1.15966916
4970.00   1.18164539
4972.00   1.16213536
4974.00   1.14195764
4976.00   1.09072912
4978.00   1.08095014
4980.00   1.07729208
4982.00   1.10207808
4984.00   1.04830790
4986.00   1.06032979
4988.00   1.05566001
4990.00   1.04487956
4992.00   1.05315769
4994.00   1.00311923
4996.00   1.01163769
4998.00   0.98751813
5000.00   1.00474513
5002.00   1.01283848
5004.00   1.00298560
5006.00   0.98717701
5008.00   0.99975610
5010.00   0.94870716
5012.00   0.98858434
5014.00   1.00069451
5016.00   0.96337062
5018.00   0.97181034
5020.00   0.94795370
5022.00   0.98458469
5024.00   0.95539927
5026.00   0.97045279
5028.00   0.94051796
5030.00   0.92069095
5032.00   0.92990083
5034.00   0.92731655
5036.00   0.94150043
5038.00   0.97226787
5040.00   0.98002374
5042.00   0.95887864
5044.00   0.95591092
5046.00   0.93815899
5048.00   0.96482617
5050.00   0.97071517
5052.00   0.98351544
5054.00   0.96931922
5056.00   1.00176179
5058.00   1.00321281
5060.00   1.01055598
5062.00   1.00399566
5064.00   0.99786711
5066.00   0.98508459
5068.00   1.03423023
5070.00   1.06337678
5072.00   1.05231273
5074.00   1.04423773
5076.00   1.04773974
5078.00   1.06465423
5080.00   1.07841659
5082.00   1.09310877
5084.00   1.09537864
5086.00   1.07830012
5088.00   1.09610987
5090.00   1.06916416
5092.00   1.14210594
5094.00   1.14269376
5096.00   1.13914871
5098.00   1.17498887
5100.00   1.16377842
5102.00   1.16475463
5104.00   1.19010687
5106.00   1.17849469
5108.00   1.21968317
5110.00   1.22159326
5112.00   1.20667815
5114.00   1.23467910
5116.00   1.28168321
5118.00   1.26677978
5120.00   1.26045418
5122.00   1.27025783
5124.00   1.27909756
5126.00   1.28485429
5128.00   1.32740247
5130.00   1.28984940
5132.00   1.28222704
5134.00   1.32534051
5136.00   1.33486617
5138.00   1.41889536
5140.00   1.38447845
5142.00   1.41483605
5144.00   1.41906059
5146.00   1.42302489
5148.00   1.50739670
5150.00   1.48407280
5152.00   1.46841598
5154.00   1.48564458
5156.00   1.49121773
5158.00   1.52596927
5160.00   1.54859686
5162.00   1.53869057
5164.00   1.56062210
5166.00   1.57665455
5168.00   1.58315110
5170.00   1.62676585
5172.00   1.64431906
5174.00   1.61915636
5176.00   1.61511409
5178.00   1.65854144
5180.00   1.61857390
5182.00   1.68300343
5184.00   1.69608486
5186.00   1.70727670
5188.00   1.72695422
5190.00   1.72289431
5192.00   1.72098839
5194.00   1.73930109
5196.00   1.73837054
5198.00   1.75313890
5200.00   1.74027622
5202.00   1.75982928
5204.00   1.76339805
5206.00   1.76971960
5208.00   1.76358175
5210.00   1.74961245
5212.00   1.74771595
5214.00   1.76133370
5216.00   1.76554418
5218.00   1.78186440
5220.00   1.77983510
5222.00   1.78141224
5224.00   1.80514860
5226.00   1.84286213
5228.00   1.81813741
5230.00   1.79905367
5232.00   1.81633580
5234.00   1.82179272
5236.00   1.81816518
5238.00   1.85630977
5240.00   1.80469179
5242.00   1.81362522
5244.00   1.84217870
5246.00   1.80049992
5248.00   1.82071602
5250.00   1.84126449
5252.00   1.82326901
5254.00   1.81666601
5256.00   1.84545398
5258.00   1.78117549
5260.00   1.79092002
5262.00   1.78704131
5264.00   1.84432054
5266.00   1.85548496
5268.00   1.79514718
5270.00   1.81056345
5272.00   1.80958378
5274.00   1.82246113
5276.00   1.79431081
5278.00   1.75300527
5280.00   1.75575376
5282.00   1.69580710
5284.00   1.67408597
5286.00   1.68604636
5288.00   1.68740749
5290.00   1.62292826
5292.00   1.65508258
5294.00   1.59435081
5296.00   1.54721367
5298.00   1.52966714
5300.00   1.51684642
5302.00   1.51527047
5304.00   1.49985385
5306.00   1.49588537
5308.00   1.45749283
5310.00   1.42561352
5312.00   1.40142357
5314.00   1.34746957
5316.00   1.39222801
5318.00   1.31165636
5320.00   1.32997108
5322.00   1.31628692
5324.00   1.28580451
5326.00   1.29293764
5328.00   1.26275945
5330.00   1.30377519
5332.00   1.26736391
5334.00   1.23609221
5336.00   1.25087392
5338.00   1.25047660
5340.00   1.26874781
5342.00   1.22830796
5344.00   1.26700926
5346.00   1.22920394
5348.00   1.23213398
5350.00   1.23784626
5352.00   1.21857381
5354.00   1.23909640
5356.00   1.27824998
5358.00   1.26936805
5360.00   1.24314094
5362.00   1.20735443
5364.00   1.23246956
5366.00   1.22145271
5368.00   1.28072035
5370.00   1.22552216
5372.00   1.26579750
5374.00   1.25876594
5376.00   1.27249169
5378.00   1.29014242
5380.00   1.24983263
5382.00   1.26562190
5384.00   1.25730562
5386.00   1.31136250
5388.00   1.27637529
5390.00   1.27654767
5392.00   1.31343758
5394.00   1.30047178
5396.00   1.30498409
5398.00   1.30867398
5400.00   1.27331269
5402.00   1.31184196
5404.00   1.29310858
5406.00   1.26572645
5408.00   1.30999184
5410.00   1.31380939
5412.00   1.33565795
5414.00   1.27113020
5416.00   1.32709563
5418.00   1.37739444
5420.00   1.33610952
5422.00   1.31995499
5424.00   1.30322075
5426.00   1.29865372
5428.00   1.33699858
5430.00   1.38766956
5432.00   1.39728343
5434.00   1.37989354
5436.00   1.36952865
5438.00   1.34805942
5440.00   1.33787012
5442.00   1.34086263
5444.00   1.35018706
5446.00   1.36182880
5448.00   1.37959754
5450.00   1.38654315
5452.00   1.38586104
5454.00   1.38488317
5456.00   1.38451445
5458.00   1.37979078
5460.00   1.36558354
5462.00   1.34432554
5464.00   1.33266079
5466.00   1.32008505
5468.00   1.32218385
5470.00   1.34600556
5472.00   1.36320794
5474.00   1.36574924
5476.00   1.35798180
5478.00   1.33035457
5480.00   1.26449680
5482.00   1.23947406
5484.00   1.24303687
5486.00   1.24324644
5488.00   1.23537290
5490.00   1.22527182
5492.00   1.21418464
5494.00   1.19889271
5496.00   1.19293058
5498.00   1.19404531
5500.00   1.19633329
5502.00   1.20515871
5504.00   1.21002221
5506.00   1.19558930
5508.00   1.16456676
5510.00   1.15478313
5512.00   1.16130602
5514.00   1.16055751
5516.00   1.14862573
5518.00   1.14460492
5520.00   1.16523254
5522.00   1.20171177
5524.00   1.21191669
5526.00   1.20594442
5528.00   1.19880474
5530.00   1.17869496
5532.00   1.16678548
5534.00   1.17216170
5536.00   1.18721950
5538.00   1.20139956
5540.00   1.22425568
5542.00   1.23491848
5544.00   1.23075283
5546.00   1.23693705
5548.00   1.26388240
5550.00   1.29420662
5552.00   1.30080533
5554.00   1.28749561
5556.00   1.29151332
5558.00   1.30297196
5560.00   1.31642985
5562.00   1.33040786
5564.00   1.34908748
5566.00   1.37952995
5568.00   1.42224276
5570.00   1.43977261
5572.00   1.43534100
5574.00   1.43788433
5576.00   1.43825698
5578.00   1.44607115
5580.00   1.47019708
5582.00   1.50565422
5584.00   1.53538728
5586.00   1.57684624
5588.00   1.59202349
5590.00   1.57717121
5592.00   1.56842208
5594.00   1.57889974
5596.00   1.59749126
5598.00   1.61189830
5600.00   1.62690425
5602.00   1.64185607
5604.00   1.66101909
5606.00   1.67280173
5608.00   1.67137396
5610.00   1.66712141
5612.00   1.67610669
5614.00   1.69473040
5616.00   1.70676982
5618.00   1.71818185
5620.00   1.72644854
5622.00   1.72830009
5624.00   1.73142993
5626.00   1.74523699
5628.00   1.76738739
5630.00   1.77528870
5632.00   1.77120340
5634.00   1.77179682
5636.00   1.77088737
5638.00   1.77594602
5640.00   1.79680753
5642.00   1.82713389
5644.00   1.83057320
5646.00   1.80122304
5648.00   1.80133927
5650.00   1.82542670
5652.00   1.84373057
5654.00   1.84559822
5656.00   1.84091508
5658.00   1.84240401
5660.00   1.84609616
5662.00   1.84868205
5664.00   1.84822130
5666.00   1.85315347
5668.00   1.86860907
5670.00   1.88497984
5672.00   1.88727069
5674.00   1.87799394
5676.00   1.87834716
5678.00   1.88192570
5680.00   1.88774621
5682.00   1.89677560
5684.00   1.90709424
5686.00   1.91790223
5688.00   1.93041372
5690.00   1.93371534
5692.00   1.93051600
5694.00   1.92381513
5696.00   1.91158652
5698.00   1.89739263
5700.00   1.88005185
5702.00   1.86101353
5704.00   1.86049581
5706.00   1.87830031
5708.00   1.89111161
5710.00   1.91162574
5712.00   1.92281437
5714.00   1.91808486
5716.00   1.90425563
5718.00   1.89097810
5720.00   1.86872828
5722.00   1.86121356
5724.00   1.86476648
5726.00   1.86914587
5728.00   1.87622571
5730.00   1.88253999
5732.00   1.88033140
5734.00   1.87173569
5736.00   1.86348081
5738.00   1.85548174
5740.00   1.84144282
5742.00   1.81927121
5744.00   1.79533434
5746.00   1.77376163
5748.00   1.75195229
5750.00   1.73965979
5752.00   1.73824561
5754.00   1.73281717
5756.00   1.72506773
5758.00   1.71846199
5760.00   1.71479607
5762.00   1.71290112
5764.00   1.71024442
5766.00   1.71076310
5768.00   1.70427489
5770.00   1.69659531
5772.00   1.67969561
5774.00   1.64475691
5776.00   1.60406828
5778.00   1.58723152
5780.00   1.58439326
5782.00   1.58913517
5784.00   1.61450064
5786.00   1.62830269
5788.00   1.62899673
5790.00   1.62088335
5792.00   1.60171473
5794.00   1.56552565
5796.00   1.55694115
5798.00   1.56804657
5800.00   1.57919538
5802.00   1.59662282
5804.00   1.61176622
5806.00   1.61439013
5808.00   1.60841775
5810.00   1.61263323
5812.00   1.62591672
5814.00   1.63138962
5816.00   1.63314915
5818.00   1.63000667
5820.00   1.61842108
5822.00   1.60156906
5824.00   1.59592223
5826.00   1.59495890
5828.00   1.60068560
5830.00   1.61798489
5832.00   1.63188112
5834.00   1.63823724
5836.00   1.64149904
5838.00   1.64611757
5840.00   1.65053439
5842.00   1.65401852
5844.00   1.65637267
5846.00   1.65883029
5848.00   1.65989220
5850.00   1.66248560
5852.00   1.67159069
5854.00   1.68684399
5856.00   1.69607306
5858.00   1.70410597
5860.00   1.70815599
5862.00   1.70945144
5864.00   1.70603216
5866.00   1.69314682
5868.00   1.67196858
5870.00   1.66990864
5872.00   1.68554866
5874.00   1.69325435
5876.00   1.69963527
5878.00   1.70243144
5880.00   1.70308125
5882.00   1.69947708
5884.00   1.67596889
5886.00   1.63294065
5888.00   1.58834028
5890.00   1.51321292
5892.00   1.47289908
5894.00   1.48587561
5896.00   1.53000844
5898.00   1.58196890
5900.00   1.66682899
5902.00   1.71283913
5904.00   1.73736608
5906.00   1.75449824
5908.00   1.76117611
5910.00   1.76237857
5912.00   1.76730669
5914.00   1.77352762
5916.00   1.76956177
5918.00   1.74730325
5920.00   1.74345934
5922.00   1.76158535
5924.00   1.78075218
5926.00   1.78608525
5928.00   1.78467035
5930.00   1.78813303
5932.00   1.79862595
5934.00   1.79617560
5936.00   1.77686214
5938.00   1.76274180
5940.00   1.76515043
5942.00   1.77543879
5944.00   1.77736127
5946.00   1.77910793
5948.00   1.77282429
5950.00   1.75522506
5952.00   1.74193192
5954.00   1.73673368
5956.00   1.73489356
5958.00   1.73261452
5960.00   1.73707032
5962.00   1.72171247
5964.00   1.68565845
5966.00   1.65589678
5968.00   1.62754583
5970.00   1.60761619
5972.00   1.60947549
5974.00   1.62968683
5976.00   1.64884233
5978.00   1.67831171
5980.00   1.70235991
5982.00   1.72920370
5984.00   1.74520755
5986.00   1.73570526
5988.00   1.70749056
5990.00   1.69825220
5992.00   1.69604671
5994.00   1.69746089
5996.00   1.70742881
5998.00   1.71523488
6000.00   1.71681035
6002.00   1.71490443
6004.00   1.71032703
6006.00   1.70021272
6008.00   1.69372058
6010.00   1.68569493
6012.00   1.68293309
6014.00   1.68883884
6016.00   1.69808686
6018.00   1.70165408
6020.00   1.70159936
6022.00   1.70543754
6024.00   1.71272218
6026.00   1.71780586
6028.00   1.72399843
6030.00   1.72511339
6032.00   1.71039641
6034.00   1.68018150
6036.00   1.67324698
6038.00   1.68307400
6040.00   1.69024229
6042.00   1.69976640
6044.00   1.70735335
6046.00   1.71047008
6048.00   1.71047473
6050.00   1.70019054
6052.00   1.67033148
6054.00   1.65961313
6056.00   1.66451359
6058.00   1.66910124
6060.00   1.66875529
6062.00   1.66634417
6064.00   1.65967607
6066.00   1.65080893
6068.00   1.63518119
6070.00   1.60778904
6072.00   1.58660150
6074.00   1.57577777
6076.00   1.56908190
6078.00   1.56056297
6080.00   1.55628729
6082.00   1.53757060
6084.00   1.50743413
6086.00   1.47436714
6088.00   1.43484128
6090.00   1.39499247
6092.00   1.36324668
6094.00   1.33702481
6096.00   1.30462587
6098.00   1.27041578
6100.00   1.23278928
6102.00   1.19123030
6104.00   1.14767098
6106.00   1.10181224
6108.00   1.05388522
6110.00   1.01427746
6112.00   0.98031694
6114.00   0.94885361
6116.00   0.92267722
6118.00   0.89653164
6120.00   0.86661416
6122.00   0.83697671
6124.00   0.81843585
6126.00   0.81318122
6128.00   0.79774535
6130.00   0.77807236
6132.00   0.75732905
6134.00   0.73436242
6136.00   0.71141684
6138.00   0.69330323
6140.00   0.67784572
6142.00   0.66620404
6144.00   0.66128510
6146.00   0.65323502
6148.00   0.64197862
6150.00   0.62960631
6152.00   0.61727482
6154.00   0.60440022
6156.00   0.59157503
6158.00   0.57806218
6160.00   0.56557518
6162.00   0.55468827
6164.00   0.54322159
6166.00   0.52891862
6168.00   0.51315308
6170.00   0.50340128
6172.00   0.49781069
6174.00   0.49381155
6176.00   0.49179685
6178.00   0.49252260
6180.00   0.49970901
6182.00   0.50828671
6184.00   0.50123775
6186.00   0.47476870
6188.00   0.46844226
6190.00   0.47498500
6192.00   0.48100552
6194.00   0.48633707
6196.00   0.49101645
6198.00   0.49130937
6200.00   0.48640952
6202.00   0.48945895
6204.00   0.49757352
6206.00   0.50688446
6208.00   0.51978010
6210.00   0.53184390
6212.00   0.53733051
6214.00   0.53783023
6216.00   0.54641801
6218.00   0.56058472
6220.00   0.57443750
6222.00   0.58992052
6224.00   0.60504532
6226.00   0.61825949
6228.00   0.63050514
6230.00   0.64417541
6232.00   0.65840960
6234.00   0.67325497
6236.00   0.68666220
6238.00   0.70411134
6240.00   0.72977436
6242.00   0.75854325
6244.00   0.77788877
6246.00   0.78963614
6248.00   0.80551159
6250.00   0.82169694
6252.00   0.83893245
6254.00   0.85651827
6256.00   0.87578899
6258.00   0.90003115
6260.00   0.93099916
6262.00   0.95021868
6264.00   0.95846349
6266.00   0.97128576
6268.00   0.99080724
6270.00   1.00839579
6272.00   1.01573026
6274.00   1.01550841
6276.00   1.02496195
6278.00   1.03914309
6280.00   1.05539250
6282.00   1.07524240
6284.00   1.09620869
6286.00   1.11640847
6288.00   1.13709033
6290.00   1.16206050
6292.00   1.19269300
6294.00   1.21984136
6296.00   1.24690163
6298.00   1.27156043
6300.00   1.29447532
6302.00   1.31425834
6304.00   1.32541788
6306.00   1.32727134
6308.00   1.33131850
6310.00   1.32726729
6312.00   1.33476365
6314.00   1.36023986
6316.00   1.39061189
6318.00   1.40948713
6320.00   1.42216218
6322.00   1.43865645
6324.00   1.46019292
6326.00   1.47320855
6328.00   1.47457302
6330.00   1.47514331
6332.00   1.48351908
6334.00   1.49575460
6336.00   1.50895560
6338.00   1.53029680
6340.00   1.53983700
6342.00   1.53464675
6344.00   1.53273118
6346.00   1.54484785
6348.00   1.56370318
6350.00   1.57255709
6352.00   1.57568634
6354.00   1.57890427
6356.00   1.57957399
6358.00   1.58036911
6360.00   1.58308184
6362.00   1.58530855
6364.00   1.58148170
6366.00   1.56879628
6368.00   1.56841433
6370.00   1.57586551
6372.00   1.58526742
6374.00   1.59811938
6376.00   1.61175084
6378.00   1.62113321
6380.00   1.62770104
6382.00   1.63616121
6384.00   1.64836538
6386.00   1.65394998
6388.00   1.65119696
6390.00   1.64720356
6392.00   1.64765680
6394.00   1.65006125
6396.00   1.64867663
6398.00   1.64198625
6400.00   1.64119208
6402.00   1.64533544
6404.00   1.65059662
6406.00   1.65657341
6408.00   1.66304445
6410.00   1.66359460
6412.00   1.65700114
6414.00   1.65523553
6416.00   1.65577793
6418.00   1.65592861
6420.00   1.65543163
6422.00   1.65434217
6424.00   1.65134013
6426.00   1.64468610
6428.00   1.64435375
6430.00   1.65071046
6432.00   1.65366626
6434.00   1.65219283
6436.00   1.64915979
6438.00   1.64699006
6440.00   1.64497185
6442.00   1.64073527
6444.00   1.63284063
6446.00   1.62811792
6448.00   1.62661898
6450.00   1.62596405
6452.00   1.62520826
6454.00   1.62497365
6456.00   1.62098396
6458.00   1.61196125
6460.00   1.60680175
6462.00   1.60456932
6464.00   1.60246146
6466.00   1.59959960
6468.00   1.59645951
6470.00   1.59220135
6472.00   1.58485460
6474.00   1.58224452
6476.00   1.58399093
6478.00   1.58472610
6480.00   1.58349431
6482.00   1.58126879
6484.00   1.57820129
6486.00   1.57422900
6488.00   1.56936657
6490.00   1.56189096
6492.00   1.55687284
6494.00   1.55631649
6496.00   1.55556476
6498.00   1.54859543
6500.00   1.53637123
6502.00   1.53170645
6504.00   1.53355110
6506.00   1.53220522
6508.00   1.52989185
6510.00   1.52484488
6512.00   1.51347327
6514.00   1.49721467
6516.00   1.49188375
6518.00   1.49495089
6520.00   1.49693561
6522.00   1.50304306
6524.00   1.50557756
6526.00   1.50008762
6528.00   1.49022102
6530.00   1.48397434
6532.00   1.48039186
6534.00   1.47251034
6536.00   1.46016800
6538.00   1.44959903
6540.00   1.44087052
6542.00   1.43446815
6544.00   1.43403101
6546.00   1.44075644
6548.00   1.44200599
6550.00   1.44152904
6552.00   1.43986964
6554.00   1.43669260
6556.00   1.43262994
6558.00   1.42846572
6560.00   1.42382228
6562.00   1.41896200
6564.00   1.41772866
6566.00   1.40782714
6568.00   1.38331401
6570.00   1.36309063
6572.00   1.36128223
6574.00   1.37079918
6576.00   1.37530589
6578.00   1.38510227
6580.00   1.38492632
6582.00   1.37478054
6584.00   1.36439872
6586.00   1.35585153
6588.00   1.34844613
6590.00   1.34854138
6592.00   1.36122131
6594.00   1.35959661
6596.00   1.34710550
6598.00   1.33666933
6600.00   1.32991672
6602.00   1.32495511
6604.00   1.32231057
6606.00   1.32331753
6608.00   1.32026446
6610.00   1.31334221
6612.00   1.30918133
6614.00   1.30933344
6616.00   1.30945635
6618.00   1.30474663
6620.00   1.29637110
6622.00   1.29335344
6624.00   1.29254878
6626.00   1.29451799
6628.00   1.30376303
6630.00   1.30920160
6632.00   1.30182457
6634.00   1.28638744
6636.00   1.27885842
6638.00   1.27460682
6640.00   1.27058029
6642.00   1.26835203
6644.00   1.26580024
6646.00   1.26145506
6648.00   1.25680947
6650.00   1.25583160
6652.00   1.26052892
6654.00   1.25794744
6656.00   1.24941778
6658.00   1.24218130
6660.00   1.23588300
6662.00   1.23155475
6664.00   1.23356235
6666.00   1.24211550
6668.00   1.24688458
6670.00   1.25379062
6672.00   1.25480211
6674.00   1.24805844
6676.00   1.23905420
6678.00   1.23224294
6680.00   1.22506535
6682.00   1.22298872
6684.00   1.22625232
6686.00   1.22838521
6688.00   1.23183632
6690.00   1.23348105
6692.00   1.23075640
6694.00   1.22509408
6696.00   1.22042120
6698.00   1.21520913
6700.00   1.20996451
6702.00   1.20267057
6704.00   1.19834137
6706.00   1.20022988
6708.00   1.20483780
6710.00   1.20363426
6712.00   1.19781137
6714.00   1.19505322
6716.00   1.19472075
6718.00   1.19203019
6720.00   1.18424034
6722.00   1.17627239
6724.00   1.17623842
6726.00   1.18353558
6728.00   1.18327260
6730.00   1.17989993
6732.00   1.17418480
6734.00   1.16273725
6736.00   1.15283656
6738.00   1.15257215
6740.00   1.15908098
6742.00   1.16248083
6744.00   1.16994858
6746.00   1.16912019
6748.00   1.15768993
6750.00   1.14709878
6752.00   1.14413702
6754.00   1.14491642
6756.00   1.14372039
6758.00   1.14748502
6760.00   1.13983607
6762.00   1.11679745
6764.00   1.10075760
6766.00   1.10046721
6768.00   1.10745656
6770.00   1.10919559
6772.00   1.11078072
6774.00   1.11081004
6776.00   1.10758030
6778.00   1.10719705
6780.00   1.11315691
6782.00   1.11889446
6784.00   1.11393464
6786.00   1.09900355
6788.00   1.09492183
6790.00   1.10060966
6792.00   1.09926498
6794.00   1.08757710
6796.00   1.07689524
6798.00   1.07806802
6800.00   1.08734095
6802.00   1.08739960
6804.00   1.08228290
6806.00   1.07758558
6808.00   1.06995630
6810.00   1.06497145
6812.00   1.06891870
6814.00   1.07739401
6816.00   1.06877720
6818.00   1.03859282
6820.00   1.02746630
6822.00   1.02843869
6824.00   1.03016806
6826.00   1.03004861
6828.00   1.03007948
6830.00   1.02984238
6832.00   1.02974963
6834.00   1.02877355
6836.00   1.02620447
6838.00   1.02499509
6840.00   1.02594233
6842.00   1.02745867
6844.00   1.02767026
6846.00   1.02729475
6848.00   1.02673626
6850.00   1.02632940
6852.00   1.02465796
6854.00   1.02001345
6856.00   1.01662529
6858.00   1.02002883
6860.00   1.02883923
6862.00   1.02385163
6864.00   1.00451303
6866.00   0.99333602
6868.00   0.98255539
6870.00   0.97997046
6872.00   0.99388373
6874.00   1.01811790
6876.00   1.02672064
6878.00   1.02684331
6880.00   1.02562714
6882.00   1.01901960
6884.00   1.01257372
6886.00   1.00705874
6888.00   1.00216806
6890.00   1.00000191
6892.00   1.00052559
6894.00   1.00048864
6896.00   1.00163329
6898.00   1.00178623
6900.00   0.99988645
6902.00   0.99811333
6904.00   0.99982101
6906.00   1.00509048
6908.00   1.00419664
6910.00   0.99789709
6912.00   0.99344945
6914.00   0.99068803
6916.00   0.98787969
6918.00   0.98341465
6920.00   0.97775894
6922.00   0.97676587
6924.00   0.98532039
6926.00   0.98127472
6928.00   0.96054155
6930.00   0.94559079
6932.00   0.94934499
6934.00   0.96284515
6936.00   0.96689504
6938.00   0.96869302
6940.00   0.96726882
6942.00   0.95985919
6944.00   0.95481437
6946.00   0.95558739
6948.00   0.95785266
6950.00   0.95414203
6952.00   0.94461888
6954.00   0.94118786
6956.00   0.94284540
6958.00   0.94182444
6960.00   0.93607718
6962.00   0.93022925
6964.00   0.93015897
6966.00   0.93519163
6968.00   0.93257594
6970.00   0.92509961
6972.00   0.91685677
6974.00   0.90386158
6976.00   0.89403933
6978.00   0.89497894
6980.00   0.90341473
6982.00   0.90812033
6984.00   0.91523451
6986.00   0.91724837
6988.00   0.91311246
6990.00   0.90981638
6992.00   0.91137624
6994.00   0.91478491
6996.00   0.91317123
6998.00   0.90579337
7000.00   0.90364444
7002.00   0.90802085
7004.00   0.90636712
7006.00   0.89185029
7008.00   0.87415451
7010.00   0.87157536
7012.00   0.88133174
7014.00   0.88362294
7016.00   0.88300991
7018.00   0.88407058
7020.00   0.88777310
7022.00   0.89171797
7024.00   0.89335084
7026.00   0.89350575
7028.00   0.89421391
7030.00   0.89622229
7032.00   0.89516616
7034.00   0.89064455
7036.00   0.88510436
7038.00   0.87958378
7040.00   0.87343121
7042.00   0.87112027
7044.00   0.87273782
7046.00   0.87300831
7048.00   0.87376529
7050.00   0.87343735
7052.00   0.87019861
7054.00   0.86579531
7056.00   0.86666524
7058.00   0.87545669
7060.00   0.87475038
7062.00   0.86568558
7064.00   0.85947788
7066.00   0.85970223
7068.00   0.86148465
7070.00   0.85801655
7072.00   0.85087192
7074.00   0.84529990
7076.00   0.83724928
7078.00   0.83388817
7080.00   0.83755124
7082.00   0.84253836
7084.00   0.84255743
7086.00   0.83978349
7088.00   0.83894223
7090.00   0.83917862
7092.00   0.83835107
7094.00   0.83580863
7096.00   0.83389252
7098.00   0.83364010
7100.00   0.83445674
7102.00   0.84012216
7104.00   0.85738236
7106.00   0.85989028
7108.00   0.84817231
7110.00   0.83735073
7112.00   0.83320433
7114.00   0.83163357
7116.00   0.82969177
7118.00   0.82980746
7120.00   0.82717782
7122.00   0.81964362
7124.00   0.81727076
7126.00   0.82530183
7128.00   0.83546788
7130.00   0.83350587
7132.00   0.82197344
7134.00   0.81621331
7136.00   0.81019896
7138.00   0.80762160
7140.00   0.81100291
7142.00   0.81447971
7144.00   0.81069082
7146.00   0.80127418
7148.00   0.80060095
7150.00   0.80731350
7152.00   0.81088567
7154.00   0.81322056
7156.00   0.81396031
7158.00   0.81158698
7160.00   0.80685782
7162.00   0.80674726
7164.00   0.81171507
7166.00   0.81229031
7168.00   0.80888271
7170.00   0.80659300
7172.00   0.80830073
7174.00   0.81130177
7176.00   0.80922890
7178.00   0.80252129
7180.00   0.79823494
7182.00   0.79108721
7184.00   0.79002362
7186.00   0.79954338
7188.00   0.81218284
7190.00   0.81586528
7192.00   0.81372070
7194.00   0.81463999
7196.00   0.81748182
7198.00   0.81731451
7200.00   0.81365055
7202.00   0.80837870
7204.00   0.80218428
7206.00   0.79374456
7208.00   0.79287344
7210.00   0.80107021
7212.00   0.80339950
7214.00   0.80279022
7216.00   0.79851377
7218.00   0.78708321
7220.00   0.77050209
7222.00   0.76764661
7224.00   0.77875340
7226.00   0.78125668
7228.00   0.77792126
7230.00   0.77672857
7232.00   0.78064221
7234.00   0.78716314
7236.00   0.79335809
7238.00   0.80309856
7240.00   0.80591285
7242.00   0.80222386
7244.00   0.79978377
7246.00   0.80014724
7248.00   0.80079430
7250.00   0.79893780
7252.00   0.79461795
7254.00   0.79370010
7256.00   0.79670894
7258.00   0.79649514
7260.00   0.79205167
7262.00   0.78698522
7264.00   0.78449625
7266.00   0.78335136
7268.00   0.78105366
7270.00   0.77744538
7272.00   0.77565145
7274.00   0.77316719
7276.00   0.77471191
7278.00   0.78581595
7280.00   0.80306810
7282.00   0.80704004
7284.00   0.80232930
7286.00   0.79634607
7288.00   0.78290540
7290.00   0.77330905
7292.00   0.77274024
7294.00   0.77605760
7296.00   0.77398837
7298.00   0.76836723
7300.00   0.76564443
7302.00   0.76269978
7304.00   0.76288009
7306.00   0.76888955
7308.00   0.77572834
7310.00   0.77519619
7312.00   0.76868057
7314.00   0.76737899
7316.00   0.76941264
7318.00   0.76972687
7320.00   0.76819044
7322.00   0.76622754
7324.00   0.76517868
7326.00   0.76476604
7328.00   0.76075637
7330.00   0.74894792
7332.00   0.74722749
7334.00   0.75614709
7336.00   0.76574385
7338.00   0.77147532
7340.00   0.77580339
7342.00   0.77665293
7344.00   0.77463490
7346.00   0.77016091
7348.00   0.76085311
7350.00   0.75281286
7352.00   0.74766332
7354.00   0.74411052
7356.00   0.74192679
7358.00   0.74124521
7360.00   0.74187940
7362.00   0.74705189
7364.00   0.74764758
7366.00   0.74049681
7368.00   0.73170823
7370.00   0.72921622
7372.00   0.73029405
7374.00   0.73152149
7376.00   0.73684174
7378.00   0.73755920
7380.00   0.73231101
7382.00   0.72633886
7384.00   0.72452837
7386.00   0.72516084
7388.00   0.71988779
7390.00   0.70602894
7392.00   0.70113665
7394.00   0.70481503
7396.00   0.70914710
7398.00   0.71097785
7400.00   0.71198702
7402.00   0.70952576
7404.00   0.70226097
7406.00   0.69782460
7408.00   0.69556087
7410.00   0.69148082
7412.00   0.68297672
7414.00   0.67336053
7416.00   0.67011088
7418.00   0.67314029
7420.00   0.67095137
7422.00   0.66643643
7424.00   0.66138357
7426.00   0.65504551
7428.00   0.64882851
7430.00   0.64553630
7432.00   0.64501673
7434.00   0.64079475
7436.00   0.63206130
7438.00   0.62764472
7440.00   0.62850738
7442.00   0.63000441
7444.00   0.62875551
7446.00   0.62636089
7448.00   0.62316835
7450.00   0.61700481
7452.00   0.61448628
7454.00   0.61833918
7456.00   0.61814630
7458.00   0.60681367
7460.00   0.58938289
7462.00   0.58045185
7464.00   0.57499117
7466.00   0.57229829
7468.00   0.57805359
7470.00   0.57727611
7472.00   0.56232584
7474.00   0.54297024
7476.00   0.53801745
7478.00   0.54430568
7480.00   0.54424238
7482.00   0.54373020
7484.00   0.54129165
7486.00   0.53658080
7488.00   0.53036660
7490.00   0.52294314
7492.00   0.51294327
7494.00   0.50869858
7496.00   0.50928932
7498.00   0.50928998
7500.00   0.50965136
7502.00   0.50984263
7504.00   0.50886834
7506.00   0.50709921
7508.00   0.50697750
7510.00   0.50808120
7512.00   0.50909352
7514.00   0.51088536
7516.00   0.51197588
7518.00   0.51192737
7520.00   0.51091051
7522.00   0.50764275
7524.00   0.49966964
7526.00   0.49686298
7528.00   0.49744853
7530.00   0.49834904
7532.00   0.49964318
7534.00   0.50079656
7536.00   0.49884486
7538.00   0.49227360
7540.00   0.49293193
7542.00   0.49950626
7544.00   0.50513560
7546.00   0.51088017
7548.00   0.51513815
7550.00   0.51397216
7552.00   0.50742900
7554.00   0.50736672
7556.00   0.51174724
7558.00   0.51500148
7560.00   0.51870233
7562.00   0.52103716
7564.00   0.51981604
7566.00   0.51595628
7568.00   0.51430112
7570.00   0.51182562
7572.00   0.51298422
7574.00   0.51992357
7576.00   0.52450663
7578.00   0.52234280
7580.00   0.51673990
7582.00   0.51429528
7584.00   0.51243949
7586.00   0.51175022
7588.00   0.51263529
7590.00   0.51348877
7592.00   0.51283801
7594.00   0.51296157
7596.00   0.51885003
7598.00   0.53141701
7600.00   0.53739947
7602.00   0.54012179
7604.00   0.54189730
7606.00   0.54411948
7608.00   0.54366827
7610.00   0.53582072
7612.00   0.52054983
7614.00   0.51403499
7616.00   0.51369929
7618.00   0.51118010
7620.00   0.50636232
7622.00   0.50252658
7624.00   0.50169283
7626.00   0.50285512
7628.00   0.50532252
7630.00   0.51052707
7632.00   0.51456708
7634.00   0.51910144
7636.00   0.52222055
7638.00   0.52316582
7640.00   0.52243149
7642.00   0.51999950
7644.00   0.51191121
7646.00   0.51216865
7648.00   0.52026182
7650.00   0.52597851
7652.00   0.52733439
7654.00   0.52677280
7656.00   0.52577960
7658.00   0.52266222
7660.00   0.52270567
7662.00   0.52458549
7664.00   0.52734947
7666.00   0.53203321
7668.00   0.53658944
7670.00   0.53829306
7672.00   0.53799880
7674.00   0.53865469
7676.00   0.53826743
7678.00   0.54005784
7680.00   0.54521662
7682.00   0.54965687
7684.00   0.55046946
7686.00   0.54912734
7688.00   0.54826921
7690.00   0.54539388
7692.00   0.54571408
7694.00   0.55026424
7696.00   0.55300039
7698.00   0.55187809
7700.00   0.54826176
7702.00   0.54195535
7704.00   0.52677941
7706.00   0.52539390
7708.00   0.53393424
7710.00   0.54422092
7712.00   0.55899745
7714.00   0.57281286
7716.00   0.57133955
7718.00   0.55508107
7720.00   0.55030149
7722.00   0.55114657
7724.00   0.55056059
7726.00   0.54799008
7728.00   0.54573220
7730.00   0.54561734
7732.00   0.54691362
7734.00   0.54880530
7736.00   0.55215472
7738.00   0.55509281
7740.00   0.55792910
7742.00   0.56069100
7744.00   0.56268054
7746.00   0.56427497
7748.00   0.57034791
7750.00   0.58772242
7752.00   0.58830410
7754.00   0.57177669
7756.00   0.55769211
7758.00   0.55332237
7760.00   0.55287123
7762.00   0.55029523
7764.00   0.54622471
7766.00   0.54669625
7768.00   0.55186141
7770.00   0.55615652
7772.00   0.55883098
7774.00   0.56095213
7776.00   0.56275868
7778.00   0.56323487
7780.00   0.56719416
7782.00   0.57802933
7784.00   0.58099997
7786.00   0.57332832
7788.00   0.56375480
7790.00   0.55921996
7792.00   0.55580580
7794.00   0.56134266
7796.00   0.58424771
7798.00   0.58970976
7800.00   0.57642359
7802.00   0.56292784
7804.00   0.55963272
7806.00   0.56086618
7808.00   0.56208915
7810.00   0.56622744
7812.00   0.56885725
7814.00   0.56808174
7816.00   0.57201076
7818.00   0.58723664
7820.00   0.60622823
7822.00   0.60849988
7824.00   0.59420472
7826.00   0.59223455
7828.00   0.59847653
7830.00   0.59980446
7832.00   0.59216070
7834.00   0.58267379
7836.00   0.58063710
7838.00   0.58281177
7840.00   0.58607286
7842.00   0.59382528
7844.00   0.59876460
7846.00   0.60033894
7848.00   0.60130793
7850.00   0.60424769
7852.00   0.60845143
7854.00   0.60836160
7856.00   0.60378885
7858.00   0.60121167
7860.00   0.59881032
7862.00   0.59803557
7864.00   0.60011274
7866.00   0.60431516
7868.00   0.60878229
7870.00   0.61585349
7872.00   0.61992598
7874.00   0.62210059
7876.00   0.62344795
7878.00   0.62421530
7880.00   0.62423033
7882.00   0.62349135
7884.00   0.62056035
7886.00   0.62111872
7888.00   0.62450701
7890.00   0.62767518
7892.00   0.63118637
7894.00   0.63395506
7896.00   0.63319916
7898.00   0.62893146
7900.00   0.62775141
7902.00   0.62854248
7904.00   0.62832731
7906.00   0.62603563
7908.00   0.62476313
7910.00   0.62771344
7912.00   0.63384348
7914.00   0.63709289
7916.00   0.64078373
7918.00   0.64078045
7920.00   0.63504279
7922.00   0.63069564
7924.00   0.63192624
7926.00   0.63620025
7928.00   0.63935632
7930.00   0.64438611
7932.00   0.64622730
7934.00   0.64528364
7936.00   0.64422929
7938.00   0.64372915
7940.00   0.64323872
7942.00   0.64242983
7944.00   0.63873512
7946.00   0.64312792
7948.00   0.65693432
7950.00   0.66666788
7952.00   0.67104411
7954.00   0.67278999
7956.00   0.67268193
7958.00   0.66828787
7960.00   0.67251801
7962.00   0.68748522
7964.00   0.69413620
7966.00   0.69404870
7968.00   0.68872380
7970.00   0.67596209
7972.00   0.65542525
7974.00   0.64873660
7976.00   0.65443814
7978.00   0.65384465
7980.00   0.64852899
7982.00   0.64428771
7984.00   0.64386809
7986.00   0.64556992
7988.00   0.64739937
7990.00   0.65288812
7992.00   0.65256518
7994.00   0.64687169
7996.00   0.64189351
7998.00   0.63873005
8000.00   0.63662404
8002.00   0.63669562
8004.00   0.63961703
8006.00   0.64073968
8008.00   0.64079189
8010.00   0.64179224
8012.00   0.64582837
8014.00   0.64869499
8016.00   0.64378977
8018.00   0.63161439
8020.00   0.62710798
8022.00   0.62997347
8024.00   0.62638915
8026.00   0.61563361
8028.00   0.60340613
8030.00   0.59229648
8032.00   0.58045495
8034.00   0.57926238
8036.00   0.59326017
8038.00   0.59535980
8040.00   0.58881974
8042.00   0.58022976
8044.00   0.57046860
8046.00   0.55967021
8048.00   0.55764294
8050.00   0.56557953
8052.00   0.56752694
8054.00   0.56915021
8056.00   0.56758165
8058.00   0.55983746
8060.00   0.55028003
8062.00   0.54883784
8064.00   0.55391723
8066.00   0.55564517
8068.00   0.55971426
8070.00   0.55835289
8072.00   0.54753143
8074.00   0.53587961
8076.00   0.53456461
8078.00   0.54041213
8080.00   0.54221362
8082.00   0.54782367
8084.00   0.54415184
8086.00   0.52709264
8088.00   0.51034915
8090.00   0.50464123
8092.00   0.50501496
8094.00   0.50351226
8096.00   0.50380063
8098.00   0.50277722
8100.00   0.49978593
8102.00   0.49829122
8104.00   0.50106835
8106.00   0.50577974
8108.00   0.50454247
8110.00   0.49551889
8112.00   0.49470711
8114.00   0.50070351
8116.00   0.50432032
8118.00   0.50274295
8120.00   0.49948257
8122.00   0.49918705
8124.00   0.50092477
8126.00   0.50066531
8128.00   0.50207013
8130.00   0.49802798
8132.00   0.48519927
8134.00   0.47108585
8136.00   0.46444669
8138.00   0.46191615
8140.00   0.46024537
8142.00   0.46231735
8144.00   0.46245173
8146.00   0.46108553
8148.00   0.45916623
8150.00   0.45710671
8152.00   0.45469818
8154.00   0.45200235
8156.00   0.45068586
8158.00   0.44524878
8160.00   0.43468255
8162.00   0.42490181
8164.00   0.41746229
8166.00   0.41171977
8168.00   0.41139734
8170.00   0.41986722
8172.00   0.42061129
8174.00   0.41893673
8176.00   0.41371745
8178.00   0.40199229
8180.00   0.38867158
8182.00   0.38472238
8184.00   0.38979176
8186.00   0.38511652
8188.00   0.37188888
8190.00   0.36383417
8192.00   0.36356655
8194.00   0.36399993
8196.00   0.35749799
8198.00   0.34595618
8200.00   0.34119165
8202.00   0.34117210
8204.00   0.34020600
8206.00   0.34022704
8208.00   0.33877748
8210.00   0.33283201
8212.00   0.32378978
8214.00   0.32065815
8216.00   0.32284698
8218.00   0.32211649
8220.00   0.31909150
8222.00   0.31731674
8224.00   0.31905743
8226.00   0.32222876
8228.00   0.32128882
8230.00   0.32065400
8232.00   0.31181914
8234.00   0.28876176
8236.00   0.27548453
8238.00   0.27985731
8240.00   0.29016557
8242.00   0.29005781
8244.00   0.28504580
8246.00   0.28014016
8248.00   0.27034917
8250.00   0.26588419
8252.00   0.26972979
8254.00   0.27407801
8256.00   0.27041709
8258.00   0.26131636
8260.00   0.25756621
8262.00   0.25652584
8264.00   0.25537392
8266.00   0.25376299
8268.00   0.25365981
8270.00   0.25679404
8272.00   0.26228055
8274.00   0.26572701
8276.00   0.27231187
8278.00   0.27001286
8280.00   0.25496414
8282.00   0.24519302
8284.00   0.24876349
8286.00   0.25886691
8288.00   0.26457790
8290.00   0.27159467
8292.00   0.27387348
8294.00   0.27258831
8296.00   0.26953706
8298.00   0.26382467
8300.00   0.25716549
8302.00   0.25331518
8304.00   0.25065434
8306.00   0.24971555
8308.00   0.25139070
8310.00   0.25250676
8312.00   0.25363028
8314.00   0.25409076
8316.00   0.25215852
8318.00   0.24777038
8320.00   0.24915913
8322.00   0.25663954
8324.00   0.26064977
8326.00   0.26174492
8328.00   0.26267609
8330.00   0.26534069
8332.00   0.26869279
8334.00   0.26876006
8336.00   0.26355529
8338.00   0.26423600
8340.00   0.27053925
8342.00   0.27557310
8344.00   0.27657628
8346.00   0.27596539
8348.00   0.27728739
8350.00   0.28083462
8352.00   0.28048438
8354.00   0.27909976
8356.00   0.27378067
8358.00   0.25982535
8360.00   0.24573588
8362.00   0.24653649
8364.00   0.25847119
8366.00   0.26880869
8368.00   0.28654131
8370.00   0.29666552
8372.00   0.29701588
8374.00   0.29530859
8376.00   0.29814395
8378.00   0.30272982
8380.00   0.30654901
8382.00   0.31182081
8384.00   0.31415558
8386.00   0.31246120
8388.00   0.31141540
8390.00   0.31328011
8392.00   0.31685969
8394.00   0.32388705
8396.00   0.33858022
8398.00   0.34490409
8400.00   0.34632748
8402.00   0.34490234
8404.00   0.33898419
8406.00   0.33122987
8408.00   0.33172759
8410.00   0.33809525
8412.00   0.34479481
8414.00   0.35620993
8416.00   0.36458865
8418.00   0.36748412
8420.00   0.36935136
8422.00   0.37633005
8424.00   0.38750213
8426.00   0.39375955
8428.00   0.39869916
8430.00   0.40016729
8432.00   0.39497307
8434.00   0.39066789
8436.00   0.39489010
8438.00   0.40467399
8440.00   0.41275889
8442.00   0.42210099
8444.00   0.43099973
8446.00   0.43959212
8448.00   0.44835928
8450.00   0.45737690
8452.00   0.46663460
8454.00   0.47705433
8456.00   0.49046493
8458.00   0.49967369
8460.00   0.50682098
8462.00   0.51140547
8464.00   0.51168102
8466.00   0.51010591
8468.00   0.51381278
8470.00   0.52040774
8472.00   0.52861273
8474.00   0.54027849
8476.00   0.55119270
8478.00   0.56126016
8480.00   0.57069129
8482.00   0.57890105
8484.00   0.58599138
8486.00   0.59280831
8488.00   0.60005397
8490.00   0.60476720
8492.00   0.60370713
8494.00   0.60489833
8496.00   0.61739844
8498.00   0.63841254
8500.00   0.64656806
8502.00   0.64424556
8504.00   0.64679813
8506.00   0.65145397
8508.00   0.65732813
8510.00   0.66481555
8512.00   0.67352921
8514.00   0.68009681
8516.00   0.68400252
8518.00   0.69100660
8520.00   0.70128006
8522.00   0.70999467
8524.00   0.71480882
8526.00   0.71850473
8528.00   0.72674221
8530.00   0.74168801
8532.00   0.74535382
8534.00   0.73727071
8536.00   0.73472053
8538.00   0.73968977
8540.00   0.74775606
8542.00   0.75562370
8544.00   0.76478708
8546.00   0.77457577
8548.00   0.78850091
8550.00   0.79645973
8552.00   0.79564065
8554.00   0.79527104
8556.00   0.80449808
8558.00   0.82006246
8560.00   0.82241327
8562.00   0.81018955
8564.00   0.80902427
8566.00   0.81499505
8568.00   0.82426924
8570.00   0.83822089
8572.00   0.85503483
8574.00   0.85818654
8576.00   0.84831649
8578.00   0.84325057
8580.00   0.83485597
8582.00   0.83141869
8584.00   0.83692807
8586.00   0.84633881
8588.00   0.85040987
8590.00   0.85185623
8592.00   0.85436869
8594.00   0.85541725
8596.00   0.85907865
8598.00   0.86772901
8600.00   0.87640315
8602.00   0.87869215
8604.00   0.87688780
8606.00   0.87395304
8608.00   0.86363119
8610.00   0.86226332
8612.00   0.87388366
8614.00   0.88417381
8616.00   0.87928361
8618.00   0.86452931
8620.00   0.87125337
8622.00   0.90107709
8624.00   0.91431081
8626.00   0.91825974
8628.00   0.91662991
8630.00   0.90802354
8632.00   0.89434201
8634.00   0.88980252
8636.00   0.89380759
8638.00   0.89098245
8640.00   0.88244879
8642.00   0.87754649
8644.00   0.87704265
8646.00   0.88091528
8648.00   0.89409196
8650.00   0.92227280
8652.00   0.93154806
8654.00   0.92621249
8656.00   0.92434847
8658.00   0.92677677
8660.00   0.93035400
8662.00   0.93426031
8664.00   0.94007057
8666.00   0.93896526
8668.00   0.93267620
8670.00   0.92468131
8672.00   0.91114944
8674.00   0.89985263
8676.00   0.89753926
8678.00   0.90109223
8680.00   0.90357149
8682.00   0.90635496
8684.00   0.91267359
8686.00   0.92635143
8688.00   0.93564391
8690.00   0.93312317
8692.00   0.92478693
8694.00   0.92617762
8696.00   0.93514395
8698.00   0.93957710
8700.00   0.94321418
8702.00   0.94563675
8704.00   0.94620919
8706.00   0.94594926
8708.00   0.94719356
8710.00   0.95031744
8712.00   0.94933337
8714.00   0.94677258
8716.00   0.94063878
8718.00   0.92836612
8720.00   0.91547030
8722.00   0.90829682
8724.00   0.90376580
8726.00   0.90427697
8728.00   0.91264522
8730.00   0.91767079
8732.00   0.92065513
8734.00   0.92257839
8736.00   0.92392719
8738.00   0.92450672
8740.00   0.92197192
8742.00   0.91607529
8744.00   0.91026032
8746.00   0.90191889
8748.00   0.89570230
8750.00   0.89247853
8752.00   0.89216512
8754.00   0.89964622
8756.00   0.91999108
8758.00   0.92892605
8760.00   0.93401736
8762.00   0.93430483
8764.00   0.92831337
8766.00   0.91849494
8768.00   0.90949923
8770.00   0.89851207
8772.00   0.89017409
8774.00   0.88077921
8776.00   0.87704444
8778.00   0.88211793
8780.00   0.88848788
8782.00   0.88701665
8784.00   0.87987924
8786.00   0.88291013
8788.00   0.89833230
8790.00   0.90296274
8792.00   0.89720041
8794.00   0.88910913
8796.00   0.88272142
8798.00   0.87592471
8800.00   0.87171566
8802.00   0.86700088
8804.00   0.86853141
8806.00   0.87851208
8808.00   0.88683552
8810.00   0.88997084
8812.00   0.89034826
8814.00   0.88836700
8816.00   0.87798530
8818.00   0.88060653
8820.00   0.89584464
8822.00   0.90677547
8824.00   0.91291958
8826.00   0.91389543
8828.00   0.90207404
8830.00   0.87204576
8832.00   0.86635709
8834.00   0.88332599
8836.00   0.88819027
8838.00   0.87811661
8840.00   0.86472195
8842.00   0.85679096
8844.00   0.85011345
8846.00   0.84719664
8848.00   0.84656423
8850.00   0.85026640
8852.00   0.86453122
8854.00   0.87347066
8856.00   0.86361933
8858.00   0.84216040
8860.00   0.83688402
8862.00   0.84619969
8864.00   0.84342539
8866.00   0.83514696
8868.00   0.82179743
8870.00   0.79763877
8872.00   0.77022064
8874.00   0.76815134
8876.00   0.79098022
8878.00   0.80059832
8880.00   0.81066889
8882.00   0.81490803
8884.00   0.81343275
8886.00   0.80571175
8888.00   0.78706080
8890.00   0.75099313
8892.00   0.74158782
8894.00   0.75097609
8896.00   0.76113766
8898.00   0.77785873
8900.00   0.79196596
8902.00   0.79133564
8904.00   0.78040236
8906.00   0.77033722
8908.00   0.75161350
8910.00   0.74267709
8912.00   0.74303699
8914.00   0.74571890
8916.00   0.74842346
8918.00   0.75225645
8920.00   0.74861586
8922.00   0.73664820
8924.00   0.72917747
8926.00   0.72124165
8928.00   0.71715200
8930.00   0.71954018
8932.00   0.72563255
8934.00   0.72941357
8936.00   0.73691785
8938.00   0.73364872
8940.00   0.72085851
8942.00   0.70745558
8944.00   0.69275957
8946.00   0.67828298
8948.00   0.66780818
8950.00   0.65620506
8952.00   0.66322625
8954.00   0.70165837
8956.00   0.71397173
8958.00   0.69416231
8960.00   0.66772968
8962.00   0.65321505
8964.00   0.64083117
8966.00   0.64488828
8968.00   0.67420471
8970.00   0.68559510
8972.00   0.68343061
8974.00   0.67723113
8976.00   0.66884226
8978.00   0.65768218
8980.00   0.65907246
8982.00   0.67717171
8984.00   0.68012398
8986.00   0.67028505
8988.00   0.66426712
8990.00   0.66761494
8992.00   0.67529011
8994.00   0.68186009
8996.00   0.69017899
8998.00   0.69709522
9000.00   0.70415390
9002.00   0.70966196
9004.00   0.71382987
9006.00   0.71625060
9008.00   0.71604282
9010.00   0.71403426
9012.00   0.70753562
9014.00   0.69519746
9016.00   0.68371993
9018.00   0.66951662
9020.00   0.65897447
9022.00   0.66048306
9024.00   0.67167848
9026.00   0.67153579
9028.00   0.66486835
9030.00   0.65878385
9032.00   0.64979696
9034.00   0.64305633
9036.00   0.64314294
9038.00   0.64697415
9040.00   0.64275640
9042.00   0.62989640
9044.00   0.62440044
9046.00   0.62148583
9048.00   0.62215424
9050.00   0.63003892
9052.00   0.63989782
9054.00   0.63675213
9056.00   0.62196267
9058.00   0.61334187
9060.00   0.60322344
9062.00   0.59808016
9064.00   0.59974718
9066.00   0.60454202
9068.00   0.60817200
9070.00   0.61256027
9072.00   0.61694163
9074.00   0.62347853
9076.00   0.62630796
9078.00   0.62533015
9080.00   0.62234038
9082.00   0.61848152
9084.00   0.61320210
9086.00   0.60661292
9088.00   0.59461123
9090.00   0.59025556
9092.00   0.59447658
9094.00   0.59809512
9096.00   0.59572631
9098.00   0.59092718
9100.00   0.59152550
9102.00   0.60057390
9104.00   0.59839612
9106.00   0.58160645
9108.00   0.57460988
9110.00   0.58829606
9112.00   0.60955596
9114.00   0.61496842
9116.00   0.61036325
9118.00   0.60922873
9120.00   0.60790569
9122.00   0.60502696
9124.00   0.60023808
9126.00   0.59430003
9128.00   0.58791149
9130.00   0.58040780
9132.00   0.57419896
9134.00   0.56521326
9136.00   0.56358761
9138.00   0.57100189
9140.00   0.58061957
9142.00   0.58854234
9144.00   0.59715730
9146.00   0.59679639
9148.00   0.58631527
9150.00   0.57997876
9152.00   0.57443255
9154.00   0.57034230
9156.00   0.57013631
9158.00   0.57158715
9160.00   0.56327862
9162.00   0.53905469
9164.00   0.53359711
9166.00   0.54487705
9168.00   0.55083340
9170.00   0.54418343
9172.00   0.53353459
9174.00   0.53033507
9176.00   0.52822769
9178.00   0.53555173
9180.00   0.55900955
9182.00   0.57147586
9184.00   0.56803435
9186.00   0.56047547
9188.00   0.56113482
9190.00   0.56628126
9192.00   0.56501126
9194.00   0.55345881
9196.00   0.55445045
9198.00   0.57183492
9200.00   0.58933580
9202.00   0.59615648
9204.00   0.59777224
9206.00   0.59032488
9208.00   0.56600612
9210.00   0.55441058
9212.00   0.54604262
9214.00   0.54816103
9216.00   0.57012260
9218.00   0.60339147
9220.00   0.61382747
9222.00   0.61205816
9224.00   0.60410488
9226.00   0.58010960
9228.00   0.56242055
9230.00   0.55741954
9232.00   0.55728012
9234.00   0.55249006
9236.00   0.54534978
9238.00   0.54235387
9240.00   0.54144371
9242.00   0.54276919
9244.00   0.54869401
9246.00   0.55435950
9248.00   0.55254132
9250.00   0.54431707
9252.00   0.54516494
9254.00   0.55645192
9256.00   0.55832112
9258.00   0.54916322
9260.00   0.53968924
9262.00   0.53740019
9264.00   0.53869659
9266.00   0.53757221
9268.00   0.53361249
9270.00   0.53488219
9272.00   0.54413646
9274.00   0.54938507
9276.00   0.54488587
9278.00   0.53492182
9280.00   0.52612555
9282.00   0.51228189
9284.00   0.50664037
9286.00   0.50751394
9288.00   0.50864208
9290.00   0.50830382
9292.00   0.50878352
9294.00   0.51318020
9296.00   0.52244186
9298.00   0.52630228
9300.00   0.52645212
9302.00   0.52733129
9304.00   0.52767092
9306.00   0.52957636
9308.00   0.53892988
9310.00   0.55772573
9312.00   0.54866755
9314.00   0.50451463
9316.00   0.48590353
9318.00   0.49048895
9320.00   0.50102252
9322.00   0.51091212
9324.00   0.52385503
9326.00   0.51896363
9328.00   0.49109757
9330.00   0.48070219
9332.00   0.48000878
9334.00   0.48381108
9336.00   0.49317873
9338.00   0.50595045
#9340.00   0.50709784
#9342.00   0.44350484
#9344.00   0.52555966
#9346.00   0.78771371
#9348.00   0.95721108
#9350.00   0.99037570
#9352.00   0.94105083
#9354.00   0.81914866
#9356.00   0.55713677
#9358.00   0.46779296
9360.00   0.50200760
9362.00   0.51510668
9364.00   0.50794142
9366.00   0.50010335
9368.00   0.49790478
9370.00   0.49925670
9372.00   0.49771324
9374.00   0.49868244
9376.00   0.49182540
9378.00   0.47059181
9380.00   0.45488518
9382.00   0.46017200
9384.00   0.47844550
9386.00   0.48543260
9388.00   0.48637560
9390.00   0.49176261
9392.00   0.50301659
9394.00   0.50951457
9396.00   0.50445360
9398.00   0.49452451
9400.00   0.49693635
9402.00   0.51201230
9404.00   0.51501811
9406.00   0.51365745
9408.00   0.50710833
9410.00   0.48801410
9412.00   0.46951360
9414.00   0.47834784
9416.00   0.51294291
9418.00   0.52585399
9420.00   0.53440428
9422.00   0.53129357
9424.00   0.50970328
9426.00   0.48558217
9428.00   0.47414771
9430.00   0.46742025
9432.00   0.47623134
9434.00   0.51181251
9436.00   0.52743232
9438.00   0.52746439
9440.00   0.52140671
9442.00   0.51173234
9444.00   0.49724483
9446.00   0.49072647
9448.00   0.49395698
9450.00   0.48627588
9452.00   0.46494526
9454.00   0.45131841
9456.00   0.45365509
9458.00   0.46486583
9460.00   0.47645712
9462.00   0.50381446
9464.00   0.50068569
9466.00   0.46088770
9468.00   0.44161943
9470.00   0.45777535
9472.00   0.48422125
9474.00   0.49098146
9476.00   0.49061164
9478.00   0.48135406
9480.00   0.45101050
9482.00   0.43802893
9484.00   0.44628078
9486.00   0.45957172
9488.00   0.46608332
9490.00   0.47213721
9492.00   0.46779940
9494.00   0.44614911
9496.00   0.43960160
9498.00   0.44626340
9500.00   0.45595104
9502.00   0.46572387
9504.00   0.47689128
9506.00   0.47629002
9508.00   0.46400699
9510.00   0.45514229
9512.00   0.44165674
9514.00   0.43435809
9516.00   0.43881172
9518.00   0.44920459
9520.00   0.45435122
9522.00   0.46432269
9524.00   0.45628980
9526.00   0.41924205
9528.00   0.40447906
9530.00   0.42556280
9532.00   0.45781878
9534.00   0.47170067
9536.00   0.47885680
9538.00   0.48231906
9540.00   0.48398975
9542.00   0.47518679
9544.00   0.44452783
9546.00   0.41921824
9548.00   0.42939404
9550.00   0.46545485
9552.00   0.47197291
9554.00   0.45942879
9556.00   0.45340049
9558.00   0.44955412
9560.00   0.44624329
9562.00   0.44421223
9564.00   0.44280323
9566.00   0.43521297
9568.00   0.41784978
9570.00   0.41074950
9572.00   0.41218457
9574.00   0.41210991
9576.00   0.40611330
9578.00   0.39895624
9580.00   0.39935479
9582.00   0.40705040
9584.00   0.40973762
9586.00   0.40882212
9588.00   0.41103280
9590.00   0.41906577
9592.00   0.42769164
9594.00   0.42968053
9596.00   0.42676884
9598.00   0.42660871
9600.00   0.42792955
9602.00   0.42717052
9604.00   0.42505381
9606.00   0.42086530
9608.00   0.41127735
9610.00   0.39619285
9612.00   0.39997908
9614.00   0.42772084
9616.00   0.43690377
9618.00   0.43262461
9620.00   0.42385796
9622.00   0.41327217
9624.00   0.39961609
9626.00   0.38864616
9628.00   0.37536007
9630.00   0.36964947
9632.00   0.37053981
9634.00   0.37316623
9636.00   0.37598738
9638.00   0.38057688
9640.00   0.38956308
9642.00   0.40992701
9644.00   0.40845507
9646.00   0.38276443
9648.00   0.36918873
9650.00   0.37318444
9652.00   0.38287202
9654.00   0.38813862
9656.00   0.39504716
9658.00   0.39216626
9660.00   0.37680861
9662.00   0.36844051
9664.00   0.36773273
9666.00   0.36766377
9668.00   0.36218181
9670.00   0.35343108
9672.00   0.35480839
9674.00   0.36464506
9676.00   0.37374201
9678.00   0.39037573
9680.00   0.39857253
9682.00   0.38597727
9684.00   0.36171222
9686.00   0.35548183
9688.00   0.35985878
9690.00   0.36391872
9692.00   0.37642571
9694.00   0.38196909
9696.00   0.37204376
9698.00   0.35780469
9700.00   0.36168808
9702.00   0.38253656
9704.00   0.38796690
9706.00   0.38598752
9708.00   0.38223389
9710.00   0.37552023
9712.00   0.36788642
9714.00   0.36310813
9716.00   0.35964268
9718.00   0.35703051
9720.00   0.35848635
9722.00   0.35455641
9724.00   0.34227443
9726.00   0.33140522
9728.00   0.32934281
9730.00   0.33257428
9732.00   0.33885255
9734.00   0.35699463
9736.00   0.36093500
9738.00   0.35168660
9740.00   0.34138167
9742.00   0.33474174
9744.00   0.32894456
9746.00   0.32457304
9748.00   0.31977022
9750.00   0.32010871
9752.00   0.32680523
9754.00   0.33198956
9756.00   0.33221662
9758.00   0.33207715
9760.00   0.34005386
9762.00   0.35831818
9764.00   0.36240926
9766.00   0.35673392
9768.00   0.35050598
9770.00   0.34058669
9772.00   0.33258685
9774.00   0.33690366
9776.00   0.35252866
9778.00   0.35419345
9780.00   0.34225330
9782.00   0.34096324
9784.00   0.35408825
9786.00   0.36467651
9788.00   0.35944998
9790.00   0.34446612
9792.00   0.33626288
9794.00   0.32766172
9796.00   0.32362038
9798.00   0.32733113
9800.00   0.32764325
9802.00   0.31710452
9804.00   0.30189827
9806.00   0.29922736
9808.00   0.30799201
9810.00   0.31032628
9812.00   0.31110397
9814.00   0.31148994
9816.00   0.31141591
9818.00   0.31112668
9820.00   0.31187990
9822.00   0.31489524
9824.00   0.31222442
9826.00   0.30055559
9828.00   0.29695129
9830.00   0.30673343
9832.00   0.31702712
9834.00   0.31293979
9836.00   0.29860425
9838.00   0.29265851
9840.00   0.29069671
9842.00   0.28754207
9844.00   0.28222838
9846.00   0.27892092
9848.00   0.28158167
9850.00   0.28842348
9852.00   0.28894719
9854.00   0.28279909
9856.00   0.28294033
9858.00   0.28680530
9860.00   0.29305527
9862.00   0.30287996
9864.00   0.31466088
9866.00   0.32016289
9868.00   0.32822126
9870.00   0.31823939
9872.00   0.28357193
9874.00   0.25995046
9876.00   0.25523928
9878.00   0.25915045
9880.00   0.26235399
9882.00   0.26973349
9884.00   0.27564433
9886.00   0.28571224
9888.00   0.28844312
9890.00   0.27704343
9892.00   0.26736003
9894.00   0.28055972
9896.00   0.31362882
9898.00   0.31231833
9900.00   0.27918088
9902.00   0.26184139
9904.00   0.25066924
9906.00   0.25006196
9908.00   0.27204359
9910.00   0.31089744
9912.00   0.30937526
9914.00   0.26511866
9916.00   0.25096354
9918.00   0.25247869
9920.00   0.26058814
9922.00   0.27907345
9924.00   0.30167657
9926.00   0.29549646
9928.00   0.25941002
9930.00   0.24179152
9932.00   0.22407392
9934.00   0.21780676
9936.00   0.22725768
9938.00   0.24568568
9940.00   0.26471964
9942.00   0.29408029
9944.00   0.30175474
9946.00   0.29167080
9948.00   0.28204700
9950.00   0.26974303
9952.00   0.25851628
9954.00   0.25411052
9956.00   0.25360912
9958.00   0.26017514
9960.00   0.28288674
9962.00   0.28988162
9964.00   0.28570473
9966.00   0.27269176
9968.00   0.24357991
9970.00   0.20242001
9972.00   0.20601664
9974.00   0.26357636
9976.00   0.27940372
9978.00   0.26604950
9980.00   0.25445759
9982.00   0.25751305
9984.00   0.26392120
9986.00   0.25509223
9988.00   0.22679523
9990.00   0.22077413
9992.00   0.22992933
9994.00   0.23882928
9996.00   0.24876368
9998.00   0.25663063
10000.00   0.25028658
10002.00   0.22502184
10004.00   0.23167074
10006.00   0.26928347
10008.00   0.29262131
10010.00   0.30441901
10012.00   0.30728298
10014.00   0.29762164
10016.00   0.27487499
10018.00   0.26191801
10020.00   0.24880773
10022.00   0.24304827
10024.00   0.24198651
10026.00   0.24876219
10028.00   0.27127987
10030.00   0.30458117
10032.00   0.30697969
10034.00   0.28044406
10036.00   0.26692510
10038.00   0.25747755
10040.00   0.24673842
10042.00   0.22797592
10044.00   0.20960519
10046.00   0.21772899
10048.00   0.25753725
10050.00   0.27129444
10052.00   0.26896501
10054.00   0.27185521
10056.00   0.29116839
10058.00   0.30664197
10060.00   0.28471163
10062.00   0.22495852
10064.00   0.20596971
10066.00   0.20504622
10068.00   0.21567205
10070.00   0.25077274
10072.00   0.28329664
10074.00   0.28211010
10076.00   0.25750631
10078.00   0.25765702
10080.00   0.27046618
10082.00   0.28339702
10084.00   0.30947909
10086.00   0.32247961
10088.00   0.30437550
10090.00   0.26584053
10092.00   0.23089947
10094.00   0.16871515
10096.00   0.15375188
10098.00   0.18060565
10100.00   0.21004149
10102.00   0.23626493
10104.00   0.26071888
10106.00   0.26259148
10108.00   0.23579979
10110.00   0.23575675
10112.00   0.25407606
10114.00   0.26656267
10116.00   0.27073696
10118.00   0.27124232
10120.00   0.27081144
10122.00   0.26977971
10124.00   0.25957319
10126.00   0.23555936
10128.00   0.22011554
10130.00   0.20691735
10132.00   0.20465633
10134.00   0.22897905
10136.00   0.27712053
10138.00   0.28706640
10140.00   0.27243662
10142.00   0.25607735
10144.00   0.21896818
10146.00   0.19711873
10148.00   0.21819617
10150.00   0.26404291
10152.00   0.27649018
10154.00   0.26681343
10156.00   0.26648918
10158.00   0.26923463
10160.00   0.26852542
10162.00   0.25814173
10164.00   0.24635670
10166.00   0.25427318
10168.00   0.28165400
10170.00   0.29644820
10172.00   0.31456289
10174.00   0.31824598
10176.00   0.30234206
10178.00   0.27723262
10180.00   0.25239974
10182.00   0.21608004
10184.00   0.21638384
10186.00   0.25959203
10188.00   0.27948186
10190.00   0.28098029
10192.00   0.27079538
10194.00   0.24693571
10196.00   0.20831914
10198.00   0.18750176
10200.00   0.15459178
10202.00   0.17040202
10204.00   0.26738173
10206.00   0.33190161
10208.00   0.28371868
10210.00   0.17907271
10212.00   0.18907915
10214.00   0.30810881
10216.00   0.34910497
10218.00   0.35900563
10220.00   0.35441151
10222.00   0.33181369
10224.00   0.29907838
10226.00   0.28618824
10228.00   0.29213679
10230.00   0.27225444
10232.00   0.22232230
10234.00   0.19442512
10236.00   0.19829777
10238.00   0.21226999
10240.00   0.21404926
10242.00   0.21193118
10244.00   0.21354645
10246.00   0.21330404
10248.00   0.22085842
10250.00   0.24509618
10252.00   0.26278010
10254.00   0.25041983
10256.00   0.21693146
10258.00   0.21106358
10260.00   0.21391644
10262.00   0.23317909
10264.00   0.29225269
10266.00   0.32743499
10268.00   0.29674488
10270.00   0.23104525
10272.00   0.21339110
10274.00   0.22777200
10276.00   0.22711255
10278.00   0.22556204
10280.00   0.22183447
10282.00   0.20931163
10284.00   0.19843295
10286.00   0.21611845
10288.00   0.26433447
10290.00   0.28854886
10292.00   0.31510016
10294.00   0.31600356
10296.00   0.27278641
10298.00   0.22468887
10300.00   0.22182547
10302.00   0.24681287
10304.00   0.27063334
10306.00   0.31290349
10308.00   0.34194937
10310.00   0.36715904
10312.00   0.37700081
10314.00   0.35649306
10316.00   0.31146964
10318.00   0.28200963
10320.00   0.24994546
10322.00   0.22989222
10324.00   0.22093283
10326.00   0.21695925
10328.00   0.20836900
10330.00   0.20448659
10332.00   0.24683811
10334.00   0.37198743
10336.00   0.40344986
10338.00   0.37535751
10340.00   0.33765215
10342.00   0.28213504
10344.00   0.22840217
10346.00   0.24657868
10348.00   0.34329540
10350.00   0.36311474
10352.00   0.32955015
10354.00   0.31494147
10356.00   0.32213733
10358.00   0.33825120
10360.00   0.36086717
10362.00   0.39805174
10364.00   0.39678991
10366.00   0.34832349
10368.00   0.33338103
10370.00   0.36150983
10372.00   0.38193670
10374.00   0.34972599
10376.00   0.28471527
10378.00   0.28939274
10380.00   0.35551155
10382.00   0.39532059
10384.00   0.43852344
10386.00   0.46138158
10388.00   0.44238353
10390.00   0.40124905
10392.00   0.40126765
10394.00   0.44232041
10396.00   0.44371948
10398.00   0.42485091
10400.00   0.39847964
10402.00   0.35289031
10404.00   0.30934647
10406.00   0.32148859
10408.00   0.38702899
10410.00   0.41618916
10412.00   0.42763680
10414.00   0.44873786
10416.00   0.49017879
10418.00   0.52627802
10420.00   0.52952802
10422.00   0.51133800
10424.00   0.47745144
10426.00   0.37871912
10428.00   0.36285844
10430.00   0.44252050
10432.00   0.53176343
10434.00   0.57986897
10436.00   0.61297411
10438.00   0.62150639
10440.00   0.58662498
10442.00   0.58089381
10444.00   0.60246265
10446.00   0.61032915
10448.00   0.58656496
10450.00   0.54527521
10452.00   0.50676614
10454.00   0.43906349
10456.00   0.43016905
10458.00   0.46889165
10460.00   0.51293123
10462.00   0.56473702
10464.00   0.61659431
10466.00   0.63978177
10468.00   0.64659649
10470.00   0.63306355
10472.00   0.57992351
10474.00   0.54829830
10476.00   0.54419494
10478.00   0.54571658
10480.00   0.53653139
10482.00   0.52580398
10484.00   0.49671686
10486.00   0.42765746
10488.00   0.40385517
10490.00   0.41918027
10492.00   0.45381904
10494.00   0.51254952
10496.00   0.59310097
10498.00   0.58679348
10500.00   0.46959558
10502.00   0.44494271
10504.00   0.48187718
10506.00   0.52806711
10508.00   0.57846814
10510.00   0.63000238
10512.00   0.62802315
10514.00   0.57235873
10516.00   0.53859246
10518.00   0.48900434
10520.00   0.46616355
10522.00   0.48322240
10524.00   0.51909417
10526.00   0.54859096
10528.00   0.59322089
10530.00   0.59452558
10532.00   0.54759049
10534.00   0.52218390
10536.00   0.52809918
10538.00   0.53193188
10540.00   0.49913153
10542.00   0.43789482
10544.00   0.42181790
10546.00   0.43888989
10548.00   0.45031762
10550.00   0.48061481
10552.00   0.48698914
10554.00   0.42157093
10556.00   0.31157884
10558.00   0.31114915
10560.00   0.40987542
10562.00   0.46387807
10564.00   0.52414733
10566.00   0.55374283
10568.00   0.52651191
10570.00   0.47031572
10572.00   0.45411238
10574.00   0.45595643
10576.00   0.46112049
10578.00   0.48927677
10580.00   0.49706873
10582.00   0.46864095
10584.00   0.43154642
10586.00   0.42507818
10588.00   0.43916556
10590.00   0.44149134
10592.00   0.43474349
10594.00   0.44156790
10596.00   0.46811697
10598.00   0.49633598
10600.00   0.51024640
10602.00   0.51712072
10604.00   0.51763618
10606.00   0.52266306
10608.00   0.49698982
10610.00   0.42570838
10612.00   0.36160412
10614.00   0.33188197
10616.00   0.32186747
10618.00   0.34027305
10620.00   0.43044505
10622.00   0.43811145
10624.00   0.37246132
10626.00   0.31840929
10628.00   0.29675356
10630.00   0.29338586
10632.00   0.32001638
10634.00   0.40204144
10636.00   0.42286059
10638.00   0.39737538
10640.00   0.38398257
10642.00   0.39094591
10644.00   0.40352982
10646.00   0.41053504
10648.00   0.41661912
10650.00   0.42157555
10652.00   0.43128136
10654.00   0.42810860
10656.00   0.40979642
10658.00   0.38541541
10660.00   0.35991144
10662.00   0.32919997
10664.00   0.31580225
10666.00   0.31396145
10668.00   0.31805077
10670.00   0.33775365
10672.00   0.35178378
10674.00   0.34558547
10676.00   0.32811579
10678.00   0.32138309
10680.00   0.31219089
10682.00   0.31856224
10684.00   0.34755704
10686.00   0.36687827
10688.00   0.36203948
10690.00   0.34879535
10692.00   0.35615900
10694.00   0.38310647
10696.00   0.38921618
10698.00   0.39252007
10700.00   0.37646851
10702.00   0.32049024
10704.00   0.26427975
10706.00   0.27261177
10708.00   0.33718646
10710.00   0.34539160
10712.00   0.31852302
10714.00   0.30112216
10716.00   0.28834960
10718.00   0.27963853
10720.00   0.27692553
10722.00   0.27883595
10724.00   0.29213300
10726.00   0.31971210
10728.00   0.34500816
10730.00   0.38520038
10732.00   0.40574709
10734.00   0.37732747
10736.00   0.32060719
10738.00   0.31245854
10740.00   0.35662231
10742.00   0.34850988
10744.00   0.29040477
10746.00   0.25571784
10748.00   0.26911038
10750.00   0.30458143
10752.00   0.32940087
10754.00   0.36746204
10756.00   0.37157178
10758.00   0.33870354
10760.00   0.31947890
10762.00   0.31195942
10764.00   0.31818956
10766.00   0.35757491
10768.00   0.44061133
10770.00   0.44807768
10772.00   0.38184032
10774.00   0.35335478
10776.00   0.36370254
10778.00   0.37874630
10780.00   0.37550148
10782.00   0.36420166
10784.00   0.35952568
10786.00   0.35797966
10788.00   0.35483980
10790.00   0.35022026
10792.00   0.34638250
10794.00   0.34201500
10796.00   0.33875373
10798.00   0.35031211
10800.00   0.38940340
10802.00   0.39656192
10804.00   0.37833840
10806.00   0.36357969
10808.00   0.35480812
10810.00   0.35220915
10812.00   0.37152115
10814.00   0.42251787
10816.00   0.43676111
10818.00   0.42310634
10820.00   0.41705051
10822.00   0.42628813
10824.00   0.43331897
10826.00   0.41516909
10828.00   0.37104410
10830.00   0.37308252
10832.00   0.41685528
10834.00   0.44435138
10836.00   0.46167961
