# File created by shivutils (I.Shivvers)
# Blotched regions marked with a #.
# wl(A)   flm    er(optional)
3450.00   0.77910573
3452.00   0.82498943
3454.00   0.81696755
3456.00   0.76689148
3458.00   0.86518891
3460.00   0.92775755
3462.00   0.81234257
3464.00   0.84518752
3466.00   0.89846975
3468.00   0.85891453
3470.00   0.88270644
3472.00   0.80521794
3474.00   0.80119323
3476.00   0.86443697
3478.00   0.83147819
3480.00   0.82119302
3482.00   0.87709267
3484.00   0.86246885
3486.00   0.81053989
3488.00   0.82947967
3490.00   0.86997547
3492.00   0.91388328
3494.00   0.90703310
3496.00   0.91203557
3498.00   0.87282807
3500.00   0.90214207
3502.00   0.87919305
3504.00   0.89315844
3506.00   0.90877498
3508.00   0.86960384
3510.00   0.87088061
3512.00   0.88527669
3514.00   0.86786001
3516.00   0.87802906
3518.00   0.88119489
3520.00   0.89031875
3522.00   0.84552233
3524.00   0.85704188
3526.00   0.86988711
3528.00   0.86133358
3530.00   0.87160571
3532.00   0.87580013
3534.00   0.86303670
3536.00   0.81070110
3538.00   0.84536731
3540.00   0.92418893
3542.00   0.86129429
3544.00   0.81638122
3546.00   0.86371996
3548.00   0.88695099
3550.00   0.88807754
3552.00   0.85758382
3554.00   0.86692424
3556.00   0.83768668
3558.00   0.82895953
3560.00   0.88068708
3562.00   0.84882059
3564.00   0.83764961
3566.00   0.85335464
3568.00   0.83845836
3570.00   0.86964777
3572.00   0.87951672
3574.00   0.82418964
3576.00   0.85859923
3578.00   0.88437162
3580.00   0.82322746
3582.00   0.82210971
3584.00   0.87665483
3586.00   0.88111905
3588.00   0.86987503
3590.00   0.86933210
3592.00   0.85924251
3594.00   0.89703544
3596.00   0.89293684
3598.00   0.93217731
3600.00   0.91205696
3602.00   0.89672385
3604.00   0.91026721
3606.00   0.88732119
3608.00   0.92609157
3610.00   0.88931469
3612.00   0.86943639
3614.00   0.89945790
3616.00   0.90401479
3618.00   0.93716786
3620.00   0.92459659
3622.00   0.93788859
3624.00   0.93311477
3626.00   0.90029335
3628.00   0.91397260
3630.00   0.89288796
3632.00   0.91327907
3634.00   0.87864574
3636.00   0.91970155
3638.00   0.87956289
3640.00   0.90684061
3642.00   0.92509668
3644.00   0.90604394
3646.00   0.91393649
3648.00   0.90189859
3650.00   0.95027723
3652.00   0.95615756
3654.00   0.89725651
3656.00   0.88842558
3658.00   0.89218820
3660.00   0.89671858
3662.00   0.88677223
3664.00   0.84312520
3666.00   0.90648650
3668.00   0.89445548
3670.00   0.88728162
3672.00   0.89915466
3674.00   0.89216165
3676.00   0.87242677
3678.00   0.88591116
3680.00   0.86998010
3682.00   0.90283755
3684.00   0.90281774
3686.00   0.86152432
3688.00   0.88880113
3690.00   0.88792641
3692.00   0.88589266
3694.00   0.91531698
3696.00   0.88004679
3698.00   0.87029859
3700.00   0.83049242
3702.00   0.92187077
3704.00   0.85907130
3706.00   0.83993967
3708.00   0.89838199
3710.00   0.85982240
3712.00   0.85539550
3714.00   0.87205686
3716.00   0.86293385
3718.00   0.85640085
3720.00   0.90589065
3722.00   0.88113788
3724.00   0.86688531
3726.00   0.93279865
3728.00   0.91089081
3730.00   0.92514920
3732.00   0.95492712
3734.00   0.93806342
3736.00   0.94713634
3738.00   0.95156809
3740.00   0.94961485
3742.00   0.98755857
3744.00   0.95599806
3746.00   0.96827856
3748.00   0.98805049
3750.00   0.96248164
3752.00   0.97447921
3754.00   0.95786753
3756.00   0.93260428
3758.00   0.96202665
3760.00   0.93426561
3762.00   0.90385587
3764.00   0.92310721
3766.00   0.93833362
3768.00   0.91986302
3770.00   0.93146333
3772.00   0.91486632
3774.00   0.90934886
3776.00   0.89780832
3778.00   0.88132839
3780.00   0.91877195
3782.00   0.91077538
3784.00   0.86344898
3786.00   0.86308679
3788.00   0.87160266
3790.00   0.87212906
3792.00   0.89350394
3794.00   0.90777278
3796.00   0.86971120
3798.00   0.89224434
3800.00   0.90271916
3802.00   0.84435419
3804.00   0.84632059
3806.00   0.83819832
3808.00   0.85849728
3810.00   0.84948133
3812.00   0.87522417
3814.00   0.81265877
3816.00   0.82004189
3818.00   0.81275471
3820.00   0.83771740
3822.00   0.82827822
3824.00   0.82915440
3826.00   0.86357690
3828.00   0.89053288
3830.00   0.86322577
3832.00   0.89873982
3834.00   0.94896924
3836.00   0.93084479
3838.00   0.93532662
3840.00   0.94344493
3842.00   0.95620669
3844.00   0.95135140
3846.00   0.97399974
3848.00   0.97056696
3850.00   0.98512592
3852.00   0.99452765
3854.00   1.01561797
3856.00   0.97461913
3858.00   0.97175030
3860.00   1.01125726
3862.00   1.01054894
3864.00   0.99995244
3866.00   1.00433020
3868.00   1.02455342
3870.00   1.00306449
3872.00   1.02587920
3874.00   1.01488452
3876.00   0.99606723
3878.00   1.01349223
3880.00   0.98032914
3882.00   0.94909423
3884.00   0.94971846
3886.00   0.91372140
3888.00   0.88166790
3890.00   0.88635888
3892.00   0.86818682
3894.00   0.90439371
3896.00   0.88085458
3898.00   0.94769224
3900.00   0.94463462
3902.00   0.94522058
3904.00   0.97845493
3906.00   0.97226943
3908.00   0.99237490
3910.00   0.97028893
3912.00   0.96823379
3914.00   0.99465429
3916.00   0.93022504
3918.00   0.97082164
3920.00   0.93626646
3922.00   0.93186004
3924.00   0.93416022
3926.00   0.90576954
3928.00   0.90376705
3930.00   0.87872942
3932.00   0.80276033
3934.00   0.84205885
3936.00   0.86404626
3938.00   0.91763932
3940.00   0.94980207
3942.00   0.93293157
3944.00   0.94753451
3946.00   0.97986276
3948.00   0.99454649
3950.00   0.92934168
3952.00   0.88636913
3954.00   0.93412636
3956.00   0.95917444
3958.00   0.96240928
3960.00   0.94758121
3962.00   0.93437125
3964.00   0.93116903
3966.00   0.90916293
3968.00   0.82433380
3970.00   0.86460799
3972.00   0.89609926
3974.00   0.92671928
3976.00   0.92979864
3978.00   0.91970717
3980.00   0.91119144
3982.00   0.92404078
3984.00   0.93214783
3986.00   0.91919741
3988.00   0.92405359
3990.00   0.92513808
3992.00   0.93729467
3994.00   0.95793085
3996.00   0.95773520
3998.00   0.96616225
4000.00   0.94939183
4002.00   0.95723202
4004.00   0.97038678
4006.00   0.95945522
4008.00   0.95134544
4010.00   0.97035510
4012.00   0.98264697
4014.00   0.96882988
4016.00   0.93003830
4018.00   0.96907762
4020.00   0.97839899
4022.00   0.97302044
4024.00   0.95179882
4026.00   0.96019105
4028.00   0.95405181
4030.00   0.94393118
4032.00   0.92524929
4034.00   1.00589865
4036.00   1.02345264
4038.00   1.04269905
4040.00   1.06187871
4042.00   1.03157376
4044.00   1.06566519
4046.00   1.03536039
4048.00   0.97114677
4050.00   1.01599897
4052.00   1.02313789
4054.00   1.03480049
4056.00   1.01644672
4058.00   1.03658396
4060.00   0.98871078
4062.00   0.97707495
4064.00   0.98191527
4066.00   0.97525473
4068.00   0.95653533
4070.00   0.96726370
4072.00   0.93161705
4074.00   0.92396826
4076.00   0.94106957
4078.00   0.91435636
4080.00   0.91898349
4082.00   0.91409434
4084.00   0.89977433
4086.00   0.87808101
4088.00   0.87663042
4090.00   0.91816343
4092.00   0.89926418
4094.00   0.92844661
4096.00   0.90395523
4098.00   0.91631946
4100.00   0.92549586
4102.00   0.89954415
4104.00   0.91625561
4106.00   0.90536370
4108.00   0.92571538
4110.00   0.92278834
4112.00   0.92813800
4114.00   0.91380627
4116.00   0.91818578
4118.00   0.95222325
4120.00   0.93299577
4122.00   0.92579110
4124.00   0.93994731
4126.00   0.95221903
4128.00   0.93281917
4130.00   0.93722394
4132.00   0.97659830
4134.00   0.95733395
4136.00   0.96419863
4138.00   0.95364912
4140.00   0.96832272
4142.00   0.97193520
4144.00   0.98313802
4146.00   0.97563083
4148.00   0.96933047
4150.00   1.00596844
4152.00   1.00142036
4154.00   1.01249374
4156.00   1.01488432
4158.00   1.01190166
4160.00   0.98718724
4162.00   1.01978945
4164.00   1.00601202
4166.00   1.02391168
4168.00   1.00755720
4170.00   0.98932083
4172.00   0.97162184
4174.00   0.99078827
4176.00   0.96829823
4178.00   0.96576767
4180.00   0.96449304
4182.00   0.96290217
4184.00   0.95473363
4186.00   0.97283490
4188.00   0.94340967
4190.00   0.96480245
4192.00   0.94270203
4194.00   0.93173152
4196.00   0.94081443
4198.00   0.93467804
4200.00   0.93334793
4202.00   0.94921381
4204.00   0.94554338
4206.00   0.94248976
4208.00   0.96537704
4210.00   0.92840041
4212.00   0.95232196
4214.00   0.94406381
4216.00   0.92517595
4218.00   0.92295191
4220.00   0.94540419
4222.00   0.92527958
4224.00   0.91911437
4226.00   0.91590266
4228.00   0.91656997
4230.00   0.92990545
4232.00   0.93395031
4234.00   0.92884348
4236.00   0.94750056
4238.00   0.94151420
4240.00   0.90324776
4242.00   0.91847845
4244.00   0.92913599
4246.00   0.92503661
4248.00   0.91760463
4250.00   0.92799781
4252.00   0.94837727
4254.00   0.93154646
4256.00   0.94695343
4258.00   0.94124028
4260.00   0.97592806
4262.00   0.95056435
4264.00   0.93764227
4266.00   0.96567565
4268.00   0.93896943
4270.00   0.93896622
4272.00   0.96989507
4274.00   0.94167289
4276.00   0.93406196
4278.00   0.93465523
4280.00   0.94547595
4282.00   0.91983858
4284.00   0.92430759
4286.00   0.93893678
4288.00   0.92712871
4290.00   0.94854506
4292.00   0.94322046
4294.00   0.93431222
4296.00   0.93683647
4298.00   0.91385960
4300.00   0.90641187
4302.00   0.92433489
4304.00   0.92427742
4306.00   0.93760414
4308.00   0.95006285
4310.00   0.93585538
4312.00   0.94959009
4314.00   0.93326129
4316.00   0.92441268
4318.00   0.93200138
4320.00   0.93507551
4322.00   0.93522769
4324.00   0.92328606
4326.00   0.90781423
4328.00   0.92915029
4330.00   0.91751513
4332.00   0.89929488
4334.00   0.89701836
4336.00   0.90941026
4338.00   0.90368230
4340.00   0.90856941
4342.00   0.89962373
4344.00   0.88601460
4346.00   0.91895112
4348.00   0.91516113
4350.00   0.88631202
4352.00   0.92104258
4354.00   0.94178640
4356.00   0.94086822
4358.00   0.92623022
4360.00   0.84347333
4362.00   0.91365237
4364.00   0.90589921
4366.00   0.93535807
4368.00   0.91168987
4370.00   0.93008010
4372.00   0.93608867
4374.00   0.91904197
4376.00   0.94589164
4378.00   0.94410588
4380.00   0.94256320
4382.00   0.91928389
4384.00   0.92258985
4386.00   0.93761056
4388.00   0.91967578
4390.00   0.89909652
4392.00   0.90844455
4394.00   0.89508990
4396.00   0.90846551
4398.00   0.92143553
4400.00   0.93785413
4402.00   0.93465819
4404.00   0.93702226
4406.00   0.94039528
4408.00   0.90132416
4410.00   0.89766152
4412.00   0.90256688
4414.00   0.89942601
4416.00   0.87977087
4418.00   0.85453308
4420.00   0.86551075
4422.00   0.85838394
4424.00   0.81432181
4426.00   0.82722317
4428.00   0.82270377
4430.00   0.82251944
4432.00   0.81490117
4434.00   0.83976945
4436.00   0.83958671
4438.00   0.87124066
4440.00   0.85146181
4442.00   0.83086139
4444.00   0.84480865
4446.00   0.87800150
4448.00   0.87633988
4450.00   0.88959785
4452.00   0.86986302
4454.00   0.88537485
4456.00   0.89255967
4458.00   0.89353599
4460.00   0.90589609
4462.00   0.89928839
4464.00   0.90668618
4466.00   0.90301142
4468.00   0.88141798
4470.00   0.87637385
4472.00   0.86012621
4474.00   0.84905329
4476.00   0.85324143
4478.00   0.88634285
4480.00   0.91603994
4482.00   0.92533797
4484.00   0.94067115
4486.00   0.98609711
4488.00   0.99595072
4490.00   0.97979222
4492.00   0.99706896
4494.00   1.00796020
4496.00   0.99391137
4498.00   0.99120681
4500.00   0.97547637
4502.00   1.00264384
4504.00   0.99061406
4506.00   0.99052779
4508.00   0.99357269
4510.00   0.99124177
4512.00   0.97314979
4514.00   0.97804254
4516.00   1.00059413
4518.00   0.97870081
4520.00   0.99000416
4522.00   0.96796739
4524.00   0.96437855
4526.00   0.98931925
4528.00   0.95669013
4530.00   0.97698648
4532.00   0.98336510
4534.00   0.98399235
4536.00   0.98967015
4538.00   0.98007897
4540.00   0.97780670
4542.00   1.00906862
4544.00   1.01621840
4546.00   0.98979022
4548.00   1.00130025
4550.00   0.99935923
4552.00   1.01668437
4554.00   1.02421215
4556.00   1.00348433
4558.00   1.00887306
4560.00   0.98660994
4562.00   0.99696304
4564.00   0.99439309
4566.00   0.99921076
4568.00   0.97565001
4570.00   0.98487931
4572.00   1.00623718
4574.00   0.99714266
4576.00   0.99404788
4578.00   1.01637491
4580.00   0.99892685
4582.00   1.00288367
4584.00   1.00216724
4586.00   0.98410923
4588.00   0.99816727
4590.00   1.01177715
4592.00   1.00725263
4594.00   1.00820326
4596.00   1.00022684
4598.00   1.00868901
4600.00   1.01115127
4602.00   0.99298081
4604.00   0.98983529
4606.00   1.00490287
4608.00   0.99579127
4610.00   1.00764480
4612.00   0.98512950
4614.00   0.97737833
4616.00   0.99455057
4618.00   0.99699809
4620.00   1.00330938
4622.00   1.01395545
4624.00   1.01040311
4626.00   1.00991380
4628.00   0.99592631
4630.00   1.01401710
4632.00   0.99307600
4634.00   1.00306369
4636.00   1.00295850
4638.00   1.00395133
4640.00   1.00065915
4642.00   0.98736833
4644.00   0.99974271
4646.00   1.00224062
4648.00   0.99806758
4650.00   1.00078866
4652.00   0.97535193
4654.00   0.99146720
4656.00   0.97956484
4658.00   0.98798781
4660.00   0.98686226
4662.00   0.98371662
4664.00   0.98358381
4666.00   0.97852531
4668.00   0.98007028
4670.00   0.97065252
4672.00   0.95533360
4674.00   0.96010120
4676.00   0.96121998
4678.00   0.97719861
4680.00   0.96570736
4682.00   0.97932409
4684.00   0.97806241
4686.00   0.98267650
4688.00   0.98245751
4690.00   0.99000868
4692.00   0.99577449
4694.00   0.98545372
4696.00   0.97245683
4698.00   1.00047868
4700.00   0.98259695
4702.00   0.98518938
4704.00   0.98603310
4706.00   0.99188548
4708.00   0.97739007
4710.00   0.98669206
4712.00   0.96987391
4714.00   0.96088882
4716.00   0.95080276
4718.00   0.95031888
4720.00   0.96883958
4722.00   0.97281608
4724.00   0.97330233
4726.00   0.97533222
4728.00   0.97877665
4730.00   0.97753514
4732.00   0.98058013
4734.00   0.96705962
4736.00   0.96713303
4738.00   0.95897625
4740.00   0.95788314
4742.00   0.95228595
4744.00   0.97457752
4746.00   0.94549526
4748.00   0.94065879
4750.00   0.92731735
4752.00   0.93289368
4754.00   0.93448100
4756.00   0.91784487
4758.00   0.92681511
4760.00   0.90462432
4762.00   0.90450563
4764.00   0.88795830
4766.00   0.91033174
4768.00   0.89502727
4770.00   0.89240950
4772.00   0.91059938
4774.00   0.88550562
4776.00   0.89916367
4778.00   0.88339901
4780.00   0.86614517
4782.00   0.89012606
4784.00   0.86492627
4786.00   0.88154681
4788.00   0.86545490
4790.00   0.87209077
4792.00   0.87552766
4794.00   0.87352240
4796.00   0.87759626
4798.00   0.87191450
4800.00   0.89601510
4802.00   0.88756127
4804.00   0.88486400
4806.00   0.87521802
4808.00   0.86847045
4810.00   0.88507184
4812.00   0.88418016
4814.00   0.89246232
4816.00   0.88824866
4818.00   0.89513452
4820.00   0.91093203
4822.00   0.91440384
4824.00   0.89389948
4826.00   0.88984847
4828.00   0.87474694
4830.00   0.88124180
4832.00   0.89445499
4834.00   0.89595455
4836.00   0.90757798
4838.00   0.90298613
4840.00   0.91225433
4842.00   0.89269731
4844.00   0.88026096
4846.00   0.89809361
4848.00   0.88683207
4850.00   0.88060698
4852.00   0.89371277
4854.00   0.86547941
4856.00   0.88340685
4858.00   0.86869985
4860.00   0.84638742
4862.00   0.86691202
4864.00   0.85221004
4866.00   0.83002226
4868.00   0.84808850
4870.00   0.86623644
4872.00   0.85544264
4874.00   0.85129406
4876.00   0.86561095
4878.00   0.86024875
4880.00   0.87186009
4882.00   0.86921153
4884.00   0.88815414
4886.00   0.88652220
4888.00   0.88352370
4890.00   0.89079142
4892.00   0.90356861
4894.00   0.92110973
4896.00   0.90101281
4898.00   0.92585213
4900.00   0.92054284
4902.00   0.93625512
4904.00   0.94673305
4906.00   0.94714810
4908.00   0.94518738
4910.00   0.92374281
4912.00   0.93968609
4914.00   0.91928645
4916.00   0.93083679
4918.00   0.95106194
4920.00   0.93161838
4922.00   0.90351833
4924.00   0.91323505
4926.00   0.90622448
4928.00   0.92676575
4930.00   0.92261577
4932.00   0.95759609
4934.00   0.95375084
4936.00   0.94878368
4938.00   0.93819974
4940.00   0.93546339
4942.00   0.95083057
4944.00   0.94294723
4946.00   0.94905264
4948.00   0.95196297
4950.00   0.93424883
4952.00   0.92803678
4954.00   0.91618871
4956.00   0.94097439
4958.00   0.91949767
4960.00   0.91282122
4962.00   0.89931918
4964.00   0.89606315
4966.00   0.92467812
4968.00   0.92806679
4970.00   0.89870555
4972.00   0.92950929
4974.00   0.91451721
4976.00   0.92110464
4978.00   0.91089849
4980.00   0.93964388
4982.00   0.92525562
4984.00   0.94951017
4986.00   0.93912147
4988.00   0.93871252
4990.00   0.95111402
4992.00   0.95336452
4994.00   0.95634628
4996.00   0.95141997
4998.00   0.96198048
5000.00   0.97916886
5002.00   0.97675392
5004.00   0.99529273
5006.00   0.99260490
5008.00   0.99175976
5010.00   0.98723575
5012.00   0.97855961
5014.00   0.97785975
5016.00   0.99000370
5018.00   0.98065464
5020.00   0.97051647
5022.00   0.98445979
5024.00   1.00706045
5026.00   1.02370801
5028.00   1.02784402
5030.00   1.04713326
5032.00   1.04821381
5034.00   1.06202365
5036.00   1.06453770
5038.00   1.05647996
5040.00   1.07163768
5042.00   1.06017071
5044.00   1.05413545
5046.00   1.05214993
5048.00   1.04347486
5050.00   1.05120137
5052.00   1.05163398
5054.00   1.04128941
5056.00   1.03418303
5058.00   1.05028321
5060.00   1.05899452
5062.00   1.03892062
5064.00   1.04075283
5066.00   1.01990894
5068.00   1.02218190
5070.00   1.03010772
5072.00   1.00490807
5074.00   1.00511514
5076.00   0.99448503
5078.00   0.99250148
5080.00   0.98085277
5082.00   0.98386358
5084.00   0.98338590
5086.00   0.95139083
5088.00   0.94171297
5090.00   0.94829302
5092.00   0.93445071
5094.00   0.92904518
5096.00   0.93740554
5098.00   0.92838973
5100.00   0.90630786
5102.00   0.91438093
5104.00   0.90173055
5106.00   0.91921621
5108.00   0.91875402
5110.00   0.90207191
5112.00   0.89528246
5114.00   0.88832390
5116.00   0.89857260
5118.00   0.89521960
5120.00   0.91023472
5122.00   0.91272096
5124.00   0.92079314
5126.00   0.90492359
5128.00   0.92227051
5130.00   0.94320049
5132.00   0.93620869
5134.00   0.90710151
5136.00   0.91903503
5138.00   0.92238035
5140.00   0.93725705
5142.00   0.92596442
5144.00   0.93892846
5146.00   0.92653826
5148.00   0.93673046
5150.00   0.93803694
5152.00   0.96126228
5154.00   0.92373293
5156.00   0.94307827
5158.00   0.92206028
5160.00   0.93116511
5162.00   0.92934542
5164.00   0.94238515
5166.00   0.93936453
5168.00   0.92553947
5170.00   0.92928652
5172.00   0.92591369
5174.00   0.92475396
5176.00   0.92551108
5178.00   0.94941407
5180.00   0.94109587
5182.00   0.94540793
5184.00   0.96207626
5186.00   0.94717831
5188.00   0.94153628
5190.00   0.93409875
5192.00   0.93266339
5194.00   0.93085999
5196.00   0.94368982
5198.00   0.92951660
5200.00   0.95316030
5202.00   0.92984999
5204.00   0.92030861
5206.00   0.92096218
5208.00   0.93554230
5210.00   0.95411459
5212.00   0.94542719
5214.00   0.93819944
5216.00   0.94592975
5218.00   0.93602423
5220.00   0.93120420
5222.00   0.94420751
5224.00   0.94139673
5226.00   0.95093167
5228.00   0.96033071
5230.00   0.95192583
5232.00   0.92086371
5234.00   0.94125431
5236.00   0.94349433
5238.00   0.93839843
5240.00   0.95483950
5242.00   0.94991172
5244.00   0.93725017
5246.00   0.94686952
5248.00   0.94946606
5250.00   0.94971327
5252.00   0.94091877
5254.00   0.94030474
5256.00   0.94642417
5258.00   0.93003209
5260.00   0.93010465
5262.00   0.93390349
5264.00   0.93338512
5266.00   0.94405352
5268.00   0.94298833
5270.00   0.95932715
5272.00   0.94610914
5274.00   0.96180223
5276.00   0.93855637
5278.00   0.95520586
5280.00   0.95151713
5282.00   0.96692344
5284.00   0.97129157
5286.00   0.94013986
5288.00   0.93945885
5290.00   0.93687854
5292.00   0.95184249
5294.00   0.93883827
5296.00   0.94312279
5298.00   0.95758978
5300.00   0.92289249
5302.00   0.96301661
5304.00   0.93705509
5306.00   0.95262727
5308.00   0.96229447
5310.00   0.97036865
5312.00   0.95082461
5314.00   0.95972132
5316.00   0.95338268
5318.00   0.93280583
5320.00   0.93965798
5322.00   0.94730794
5324.00   0.94437042
5326.00   0.95316649
5328.00   0.93697834
5330.00   0.95290607
5332.00   0.94147580
5334.00   0.94082418
5336.00   0.92486767
5338.00   0.93614544
5340.00   0.93797561
5342.00   0.92240282
5344.00   0.93169452
5346.00   0.91276970
5348.00   0.92971973
5350.00   0.93406604
5352.00   0.89939032
5354.00   0.92159202
5356.00   0.91236598
5358.00   0.89686267
5360.00   0.89029356
5362.00   0.91186081
5364.00   0.90370307
5366.00   0.88262602
5368.00   0.90545976
5370.00   0.87502581
5372.00   0.87809220
5374.00   0.85642036
5376.00   0.87967062
5378.00   0.89166893
5380.00   0.88014686
5382.00   0.87114132
5384.00   0.89868367
5386.00   0.90489226
5388.00   0.88618806
5390.00   0.86679469
5392.00   0.87682414
5394.00   0.87096546
5396.00   0.86149287
5398.00   0.87176477
5400.00   0.86124701
5402.00   0.87677701
5404.00   0.87030991
5406.00   0.88058761
5408.00   0.87328748
5410.00   0.88086923
5412.00   0.88520135
5414.00   0.87643277
5416.00   0.84939007
5418.00   0.85732320
5420.00   0.87881170
5422.00   0.90382306
5424.00   0.86155757
5426.00   0.89482394
5428.00   0.89107061
5430.00   0.90712955
5432.00   0.89266065
5434.00   0.88009493
5436.00   0.87882323
5438.00   0.89253770
5440.00   0.89713200
5442.00   0.89343720
5444.00   0.89572603
5446.00   0.86482360
5448.00   0.86235235
5450.00   0.86588258
5452.00   0.86899511
5454.00   0.87106623
5456.00   0.87272791
5458.00   0.87828545
5460.00   0.87563912
5462.00   0.86506027
5464.00   0.85530166
5466.00   0.85380723
5468.00   0.86146086
5470.00   0.86495028
5472.00   0.86445228
5474.00   0.86676300
5476.00   0.87993904
5478.00   0.89706198
5480.00   0.90774014
5482.00   0.91933145
5484.00   0.91573358
5486.00   0.89318224
5488.00   0.87659582
5490.00   0.86612080
5492.00   0.86130216
5494.00   0.86324056
5496.00   0.87348223
5498.00   0.87383922
5500.00   0.86633645
5502.00   0.85933499
5504.00   0.85524917
5506.00   0.85304511
5508.00   0.85139525
5510.00   0.85112550
5512.00   0.84819331
5514.00   0.83954706
5516.00   0.84106060
5518.00   0.85303505
5520.00   0.86304448
5522.00   0.86734998
5524.00   0.86568119
5526.00   0.86491356
5528.00   0.86260442
5530.00   0.86521403
5532.00   0.87078021
5534.00   0.86936833
5536.00   0.86067188
5538.00   0.84869095
5540.00   0.84473040
5542.00   0.84669020
5544.00   0.84507994
5546.00   0.84163694
5548.00   0.84124585
5550.00   0.84376119
5552.00   0.84699359
5554.00   0.84596747
5556.00   0.83996526
5558.00   0.83849309
5560.00   0.83939187
5562.00   0.84184400
5564.00   0.84434855
5566.00   0.84556397
5568.00   0.84809341
5570.00   0.85139324
5572.00   0.85245142
5574.00   0.85020181
5576.00   0.84570201
5578.00   0.83848910
5580.00   0.82943201
5582.00   0.82344882
5584.00   0.81834805
5586.00   0.81593100
5588.00   0.81748114
5590.00   0.81836492
5592.00   0.81663038
5594.00   0.81446568
5596.00   0.81279902
5598.00   0.80995315
5600.00   0.80894419
5602.00   0.81042012
5604.00   0.81280953
5606.00   0.81434417
5608.00   0.81392451
5610.00   0.81083012
5612.00   0.80373683
5614.00   0.80185123
5616.00   0.80580626
5618.00   0.80592622
5620.00   0.79948038
5622.00   0.79554586
5624.00   0.79944837
5626.00   0.80604508
5628.00   0.80534617
5630.00   0.79886661
5632.00   0.79587686
5634.00   0.79136558
5636.00   0.78905137
5638.00   0.79208414
5640.00   0.79740705
5642.00   0.79888541
5644.00   0.79999491
5646.00   0.79794445
5648.00   0.78876885
5650.00   0.78278977
5652.00   0.78678900
5654.00   0.79519121
5656.00   0.79353146
5658.00   0.78423587
5660.00   0.77951980
5662.00   0.77479049
5664.00   0.77507536
5666.00   0.78562733
5668.00   0.80085850
5670.00   0.80105565
5672.00   0.78816678
5674.00   0.78244309
5676.00   0.77920687
5678.00   0.77938473
5680.00   0.78411299
5682.00   0.78829261
5684.00   0.77992469
5686.00   0.75955594
5688.00   0.74791936
5690.00   0.73961981
5692.00   0.73709814
5694.00   0.74080467
5696.00   0.74630549
5698.00   0.74764438
5700.00   0.74686674
5702.00   0.74776967
5704.00   0.75153089
5706.00   0.75198112
5708.00   0.74654899
5710.00   0.73852074
5712.00   0.73575044
5714.00   0.73656110
5716.00   0.73595564
5718.00   0.73456164
5720.00   0.73535097
5722.00   0.73727614
5724.00   0.73630802
5726.00   0.73506113
5728.00   0.73280815
5730.00   0.73192088
5732.00   0.73196826
5734.00   0.73462067
5736.00   0.73691545
5738.00   0.73623741
5740.00   0.73531604
5742.00   0.73132894
5744.00   0.73105335
5746.00   0.73408677
5748.00   0.73780527
5750.00   0.74214913
5752.00   0.74217602
5754.00   0.73444746
5756.00   0.72146928
5758.00   0.72359671
5760.00   0.74078405
5762.00   0.74602793
5764.00   0.73984172
5766.00   0.73429183
5768.00   0.73478190
5770.00   0.73671977
5772.00   0.73430638
5774.00   0.72898583
5776.00   0.72611580
5778.00   0.72053734
5780.00   0.71916868
5782.00   0.72890516
5784.00   0.74135147
5786.00   0.74083781
5788.00   0.73154916
5790.00   0.72857193
5792.00   0.72571107
5794.00   0.72484155
5796.00   0.73241836
5798.00   0.74320851
5800.00   0.74559418
5802.00   0.74275231
5804.00   0.74477067
5806.00   0.75116968
5808.00   0.75520229
5810.00   0.75562902
5812.00   0.75422027
5814.00   0.75587239
5816.00   0.76015379
5818.00   0.76650325
5820.00   0.77653909
5822.00   0.78465619
5824.00   0.79054403
5826.00   0.79623872
5828.00   0.80788785
5830.00   0.82573420
5832.00   0.83593124
5834.00   0.83865142
5836.00   0.84593227
5838.00   0.85825924
5840.00   0.87245661
5842.00   0.88388799
5844.00   0.89327476
5846.00   0.89995380
5848.00   0.90256321
5850.00   0.90568431
5852.00   0.91161052
5854.00   0.91877826
5856.00   0.92130029
5858.00   0.92246334
5860.00   0.92662927
5862.00   0.93554314
5864.00   0.93442156
5866.00   0.92589086
5868.00   0.91350037
5870.00   0.89626662
5872.00   0.87573218
5874.00   0.86552840
5876.00   0.86138062
5878.00   0.86042009
5880.00   0.86534053
5882.00   0.87208190
5884.00   0.87676974
5886.00   0.88101109
5888.00   0.89090097
5890.00   0.90873681
5892.00   0.91294744
5894.00   0.90014958
5896.00   0.89668657
5898.00   0.90612501
5900.00   0.92199222
5902.00   0.93974529
5904.00   0.96365682
5906.00   0.97833552
5908.00   0.98909869
5910.00   0.99422520
5912.00   0.98754398
5914.00   0.97015307
5916.00   0.95730126
5918.00   0.94370292
5920.00   0.93652924
5922.00   0.93241439
5924.00   0.93490156
5926.00   0.94593310
5928.00   0.95545286
5930.00   0.95523520
5932.00   0.95137384
5934.00   0.94929314
5936.00   0.94675875
5938.00   0.94270176
5940.00   0.94121104
5942.00   0.93748953
5944.00   0.92726505
5946.00   0.91535246
5948.00   0.90853860
5950.00   0.90324245
5952.00   0.89892314
5954.00   0.90097541
5956.00   0.90444088
5958.00   0.90248475
5960.00   0.89755744
5962.00   0.88986768
5964.00   0.87731417
5966.00   0.86815743
5968.00   0.86193023
5970.00   0.85516659
5972.00   0.84850309
5974.00   0.84282897
5976.00   0.83972977
5978.00   0.83962981
5980.00   0.83953522
5982.00   0.83927093
5984.00   0.83626741
5986.00   0.83202906
5988.00   0.82678831
5990.00   0.82361064
5992.00   0.82197460
5994.00   0.81945697
5996.00   0.81535683
5998.00   0.81365691
6000.00   0.81358735
6002.00   0.81238449
6004.00   0.81047525
6006.00   0.80806184
6008.00   0.80458494
6010.00   0.79845687
6012.00   0.79261325
6014.00   0.78814244
6016.00   0.78603552
6018.00   0.78442291
6020.00   0.78313041
6022.00   0.78047113
6024.00   0.77581491
6026.00   0.77496070
6028.00   0.77803101
6030.00   0.78148572
6032.00   0.77932632
6034.00   0.77187775
6036.00   0.76641558
6038.00   0.75970411
6040.00   0.75579290
6042.00   0.75668438
6044.00   0.75988108
6046.00   0.75759580
6048.00   0.75244057
6050.00   0.75128013
6052.00   0.75325108
6054.00   0.75155723
6056.00   0.74819781
6058.00   0.74765040
6060.00   0.74902274
6062.00   0.75243594
6064.00   0.75602384
6066.00   0.76329809
6068.00   0.76412974
6070.00   0.75693305
6072.00   0.75041968
6074.00   0.75081583
6076.00   0.75465522
6078.00   0.75455558
6080.00   0.75166374
6082.00   0.74915214
6084.00   0.74663103
6086.00   0.74558415
6088.00   0.74287166
6090.00   0.74044736
6092.00   0.74175419
6094.00   0.74653608
6096.00   0.74770943
6098.00   0.74681503
6100.00   0.74688013
6102.00   0.74787329
6104.00   0.74902630
6106.00   0.75086759
6108.00   0.75531892
6110.00   0.75605768
6112.00   0.75335254
6114.00   0.75173654
6116.00   0.74999249
6118.00   0.74663782
6120.00   0.74711603
6122.00   0.75212443
6124.00   0.75404513
6126.00   0.75489114
6128.00   0.75430592
6130.00   0.75189604
6132.00   0.74702938
6134.00   0.74438328
6136.00   0.74376070
6138.00   0.74271669
6140.00   0.74021133
6142.00   0.74146710
6144.00   0.74627640
6146.00   0.74990179
6148.00   0.75085304
6150.00   0.75133659
6152.00   0.75080053
6154.00   0.74915451
6156.00   0.74614622
6158.00   0.74197231
6160.00   0.73642552
6162.00   0.73209582
6164.00   0.73029399
6166.00   0.72922784
6168.00   0.72790267
6170.00   0.72908366
6172.00   0.73467149
6174.00   0.74087497
6176.00   0.74412368
6178.00   0.74589624
6180.00   0.74558103
6182.00   0.74114998
6184.00   0.73946180
6186.00   0.74117488
6188.00   0.74382985
6190.00   0.74481318
6192.00   0.74587113
6194.00   0.74773838
6196.00   0.75042868
6198.00   0.75051349
6200.00   0.74734245
6202.00   0.74480607
6204.00   0.74534706
6206.00   0.74999193
6208.00   0.75064852
6210.00   0.74781756
6212.00   0.74641526
6214.00   0.74662902
6216.00   0.74760707
6218.00   0.75016222
6220.00   0.75300191
6222.00   0.75218040
6224.00   0.74938494
6226.00   0.74533427
6228.00   0.73660179
6230.00   0.73153921
6232.00   0.73277446
6234.00   0.73552934
6236.00   0.73506888
6238.00   0.73312936
6240.00   0.73150271
6242.00   0.72919170
6244.00   0.72670629
6246.00   0.72376275
6248.00   0.72371171
6250.00   0.72782514
6252.00   0.73592377
6254.00   0.73268749
6256.00   0.71716875
6258.00   0.70778896
6260.00   0.70476844
6262.00   0.70401915
6264.00   0.69996923
6266.00   0.69327124
6268.00   0.69030591
6270.00   0.69119445
6272.00   0.68927650
6274.00   0.68525485
6276.00   0.67967788
6278.00   0.67098306
6280.00   0.66056343
6282.00   0.65670421
6284.00   0.65571642
6286.00   0.65909100
6288.00   0.67407507
6290.00   0.68833778
6292.00   0.69119018
6294.00   0.68829958
6296.00   0.68793362
6298.00   0.68633733
6300.00   0.68516189
6302.00   0.68420283
6304.00   0.68278033
6306.00   0.68158305
6308.00   0.68188363
6310.00   0.68448792
6312.00   0.69037008
6314.00   0.69335622
6316.00   0.69448719
6318.00   0.69595937
6320.00   0.69800744
6322.00   0.69913210
6324.00   0.70043925
6326.00   0.70155446
6328.00   0.70440159
6330.00   0.70910994
6332.00   0.71366100
6334.00   0.71510744
6336.00   0.71346503
6338.00   0.71598270
6340.00   0.72134709
6342.00   0.72390266
6344.00   0.72401112
6346.00   0.72613174
6348.00   0.72862353
6350.00   0.73079773
6352.00   0.73297981
6354.00   0.73483980
6356.00   0.73682483
6358.00   0.73967268
6360.00   0.74069629
6362.00   0.74004630
6364.00   0.74035015
6366.00   0.73943110
6368.00   0.73720280
6370.00   0.73889552
6372.00   0.74474810
6374.00   0.74682947
6376.00   0.74630872
6378.00   0.74897963
6380.00   0.75505664
6382.00   0.76428936
6384.00   0.76727817
6386.00   0.76555143
6388.00   0.76319881
6390.00   0.75982481
6392.00   0.75862930
6394.00   0.76077636
6396.00   0.76631103
6398.00   0.76800662
6400.00   0.76896048
6402.00   0.76708303
6404.00   0.75766651
6406.00   0.75529305
6408.00   0.77435005
6410.00   0.80375785
6412.00   0.79835141
6414.00   0.76256516
6416.00   0.74505464
6418.00   0.73491315
6420.00   0.73218822
6422.00   0.73882866
6424.00   0.74947725
6426.00   0.75741607
6428.00   0.76780359
6430.00   0.76932001
6432.00   0.75978114
6434.00   0.75334791
6436.00   0.74938905
6438.00   0.74545729
6440.00   0.74318264
6442.00   0.74254074
6444.00   0.73890917
6446.00   0.72978860
6448.00   0.72711476
6450.00   0.73290763
6452.00   0.73955051
6454.00   0.73974419
6456.00   0.73700525
6458.00   0.73297648
6460.00   0.72402330
6462.00   0.71794897
6464.00   0.71760339
6466.00   0.71754209
6468.00   0.71315364
6470.00   0.70895477
6472.00   0.70639481
6474.00   0.70333296
6476.00   0.70123933
6478.00   0.70551580
6480.00   0.71058106
6482.00   0.70841750
6484.00   0.70136305
6486.00   0.69762482
6488.00   0.69342283
6490.00   0.69234395
6492.00   0.69578520
6494.00   0.69745920
6496.00   0.69440073
6498.00   0.69000004
6500.00   0.69157430
6502.00   0.69907109
6504.00   0.70106339
6506.00   0.69692051
6508.00   0.69502739
6510.00   0.69919386
6512.00   0.70657494
6514.00   0.70844680
6516.00   0.70472348
6518.00   0.70555033
6520.00   0.70926032
6522.00   0.71391388
6524.00   0.71965418
6526.00   0.72582074
6528.00   0.72768841
6530.00   0.72499108
6532.00   0.72743869
6534.00   0.73576661
6536.00   0.73970081
6538.00   0.73666847
6540.00   0.73223092
6542.00   0.73406984
6544.00   0.74126647
6546.00   0.74276650
6548.00   0.73931360
6550.00   0.73779056
6552.00   0.74101343
6554.00   0.74555232
6556.00   0.74426915
6558.00   0.73808962
6560.00   0.73567007
6562.00   0.73663773
6564.00   0.73621664
6566.00   0.73168172
6568.00   0.72670035
6570.00   0.72848304
6572.00   0.73814058
6574.00   0.74311040
6576.00   0.74563785
6578.00   0.74703014
6580.00   0.75050463
6582.00   0.75470964
6584.00   0.75602841
6586.00   0.75413998
6588.00   0.75522095
6590.00   0.76026527
6592.00   0.76078796
6594.00   0.75530074
6596.00   0.74897504
6598.00   0.74388568
6600.00   0.73733292
6602.00   0.73244862
6604.00   0.72859848
6606.00   0.72509257
6608.00   0.72103421
6610.00   0.72104239
6612.00   0.72526278
6614.00   0.73190655
6616.00   0.73534453
6618.00   0.73761471
6620.00   0.73817712
6622.00   0.73584366
6624.00   0.73521012
6626.00   0.73785075
6628.00   0.74074882
6630.00   0.74214631
6632.00   0.74415102
6634.00   0.74733408
6636.00   0.74981801
6638.00   0.74951986
6640.00   0.75138249
6642.00   0.75421484
6644.00   0.75558154
6646.00   0.75674667
6648.00   0.75969090
6650.00   0.76435900
6652.00   0.76913033
6654.00   0.77377309
6656.00   0.77721111
6658.00   0.77977439
6660.00   0.78207487
6662.00   0.78011062
6664.00   0.77332793
6666.00   0.76794062
6668.00   0.76201675
6670.00   0.75539559
6672.00   0.75261001
6674.00   0.75243833
6676.00   0.75034519
6678.00   0.74689716
6680.00   0.74605358
6682.00   0.74396523
6684.00   0.74365830
6686.00   0.74991955
6688.00   0.76081836
6690.00   0.77050314
6692.00   0.78359403
6694.00   0.79194653
6696.00   0.79442020
6698.00   0.79584694
6700.00   0.79820192
6702.00   0.79981655
6704.00   0.80474005
6706.00   0.81366263
6708.00   0.81905584
6710.00   0.82133373
6712.00   0.82137746
6714.00   0.82208169
6716.00   0.82645168
6718.00   0.82489075
6720.00   0.81713003
6722.00   0.81111298
6724.00   0.80711168
6726.00   0.80349837
6728.00   0.80087541
6730.00   0.80046020
6732.00   0.79667572
6734.00   0.78876533
6736.00   0.78410792
6738.00   0.78263271
6740.00   0.78261826
6742.00   0.78319389
6744.00   0.78263923
6746.00   0.77830182
6748.00   0.77137005
6750.00   0.76535666
6752.00   0.75663829
6754.00   0.75071591
6756.00   0.75010641
6758.00   0.75067961
6760.00   0.75250407
6762.00   0.75953645
6764.00   0.75988084
6766.00   0.75335135
6768.00   0.74649018
6770.00   0.74030226
6772.00   0.73321356
6774.00   0.72732325
6776.00   0.72153993
6778.00   0.71793546
6780.00   0.71588576
6782.00   0.71559417
6784.00   0.71781796
6786.00   0.72053186
6788.00   0.72030985
6790.00   0.71776408
6792.00   0.71329931
6794.00   0.70435784
6796.00   0.70008584
6798.00   0.70036459
6800.00   0.70181731
6802.00   0.70134046
6804.00   0.69843682
6806.00   0.69576718
6808.00   0.69153086
6810.00   0.69028099
6812.00   0.69183789
6814.00   0.69385896
6816.00   0.69311257
6818.00   0.69007633
6820.00   0.68821309
6822.00   0.68533760
6824.00   0.68422246
6826.00   0.68541839
6828.00   0.68645549
6830.00   0.68455684
6832.00   0.68230581
6834.00   0.68002721
6836.00   0.67623460
6838.00   0.67151125
6840.00   0.66601149
6842.00   0.66346633
6844.00   0.66259025
6846.00   0.66297189
6848.00   0.66556863
6850.00   0.67156329
6852.00   0.67216808
6854.00   0.66919158
6856.00   0.66443453
6858.00   0.65243584
6860.00   0.63672487
6862.00   0.63536344
6864.00   0.64508043
6866.00   0.64929036
6868.00   0.65096289
6870.00   0.65435016
6872.00   0.65890427
6874.00   0.66293375
6876.00   0.66437743
6878.00   0.66372108
6880.00   0.66220691
6882.00   0.65749973
6884.00   0.65548114
6886.00   0.65707910
6888.00   0.65812260
6890.00   0.65878689
6892.00   0.66177666
6894.00   0.65753675
6896.00   0.64248250
6898.00   0.63608585
6900.00   0.63984132
6902.00   0.64432387
6904.00   0.64412200
6906.00   0.64284939
6908.00   0.64365051
6910.00   0.64668721
6912.00   0.64607787
6914.00   0.64177010
6916.00   0.63858861
6918.00   0.63812951
6920.00   0.63701244
6922.00   0.63532825
6924.00   0.63541341
6926.00   0.63353711
6928.00   0.62418286
6930.00   0.61601609
6932.00   0.61930847
6934.00   0.62846156
6936.00   0.62902840
6938.00   0.62506882
6940.00   0.62386211
6942.00   0.62186156
6944.00   0.62096222
6946.00   0.62691089
6948.00   0.63605362
6950.00   0.63452741
6952.00   0.62325490
6954.00   0.62061858
6956.00   0.62424078
6958.00   0.62695873
6960.00   0.62956669
6962.00   0.63200196
6964.00   0.63058327
6966.00   0.62485405
6968.00   0.62428425
6970.00   0.62710836
6972.00   0.62833816
6974.00   0.62904175
6976.00   0.63035538
6978.00   0.63145737
6980.00   0.63280908
6982.00   0.63478108
6984.00   0.63633714
6986.00   0.63792135
6988.00   0.64326348
6990.00   0.64802402
6992.00   0.64847114
6994.00   0.64773887
6996.00   0.64979587
6998.00   0.65273432
7000.00   0.65560389
7002.00   0.66059812
7004.00   0.66726559
7006.00   0.67337904
7008.00   0.67860526
7010.00   0.68574929
7012.00   0.69667164
7014.00   0.70307094
7016.00   0.70441860
7018.00   0.70395219
7020.00   0.70314284
7022.00   0.70212307
7024.00   0.70494958
7026.00   0.71162740
7028.00   0.71603189
7030.00   0.71944243
7032.00   0.72331303
7034.00   0.72896761
7036.00   0.73815111
7038.00   0.74131040
7040.00   0.73876868
7042.00   0.73860419
7044.00   0.74462332
7046.00   0.74605463
7048.00   0.73643549
7050.00   0.72250815
7052.00   0.72078067
7054.00   0.72765960
7056.00   0.73145270
7058.00   0.73622829
7060.00   0.73541607
7062.00   0.72932436
7064.00   0.72373497
7066.00   0.72186242
7068.00   0.72206094
7070.00   0.72319931
7072.00   0.72558971
7074.00   0.72996350
7076.00   0.73734846
7078.00   0.74582007
7080.00   0.75470473
7082.00   0.76620344
7084.00   0.77025507
7086.00   0.76546423
7088.00   0.76307412
7090.00   0.76390835
7092.00   0.76617819
7094.00   0.76934987
7096.00   0.77479066
7098.00   0.77717660
7100.00   0.77905691
7102.00   0.77639508
7104.00   0.76793216
7106.00   0.76002359
7108.00   0.75687267
7110.00   0.75518608
7112.00   0.75271293
7114.00   0.75033544
7116.00   0.74973367
7118.00   0.74994824
7120.00   0.74911984
7122.00   0.74723417
7124.00   0.74582408
7126.00   0.74464067
7128.00   0.74447554
7130.00   0.74062955
7132.00   0.73397253
7134.00   0.72896246
7136.00   0.72568019
7138.00   0.72314588
7140.00   0.72037603
7142.00   0.71841637
7144.00   0.71569894
7146.00   0.71245937
7148.00   0.70717615
7150.00   0.69938745
7152.00   0.68989551
7154.00   0.68552814
7156.00   0.68633538
7158.00   0.68326996
7160.00   0.67705425
7162.00   0.67162911
7164.00   0.66781437
7166.00   0.66500906
7168.00   0.66198174
7170.00   0.65858648
7172.00   0.65508272
7174.00   0.65046487
7176.00   0.64887553
7178.00   0.65154044
7180.00   0.65546024
7182.00   0.65272653
7184.00   0.64495722
7186.00   0.63892136
7188.00   0.63167930
7190.00   0.62781823
7192.00   0.62824649
7194.00   0.62921786
7196.00   0.63081590
7198.00   0.63571942
7200.00   0.63807925
7202.00   0.63827185
7204.00   0.63805409
7206.00   0.63799020
7208.00   0.63787625
7210.00   0.63837812
7212.00   0.63996331
7214.00   0.63998785
7216.00   0.63839910
7218.00   0.63748376
7220.00   0.63724643
7222.00   0.63731718
7224.00   0.63877930
7226.00   0.64078667
7228.00   0.64561222
7230.00   0.65560532
7232.00   0.66233774
7234.00   0.66643926
7236.00   0.66569382
7238.00   0.66081315
7240.00   0.65463038
7242.00   0.65240862
7244.00   0.65230109
7246.00   0.65143096
7248.00   0.65110507
7250.00   0.65120345
7252.00   0.65283314
7254.00   0.65537035
7256.00   0.65787909
7258.00   0.66047702
7260.00   0.66391311
7262.00   0.66688470
7264.00   0.66723790
7266.00   0.66452956
7268.00   0.66084254
7270.00   0.66233267
7272.00   0.66884927
7274.00   0.66867103
7276.00   0.66339950
7278.00   0.65849010
7280.00   0.65330182
7282.00   0.65057900
7284.00   0.64952123
7286.00   0.64858176
7288.00   0.64577605
7290.00   0.63998864
7292.00   0.64110800
7294.00   0.65093803
7296.00   0.66636799
7298.00   0.67551323
7300.00   0.68146610
7302.00   0.68255862
7304.00   0.67722722
7306.00   0.67425112
7308.00   0.67264809
7310.00   0.67260945
7312.00   0.67374827
7314.00   0.67546801
7316.00   0.67480272
7318.00   0.67278548
7320.00   0.66957299
7322.00   0.66373769
7324.00   0.66061227
7326.00   0.66022551
7328.00   0.65880175
7330.00   0.65934755
7332.00   0.66308943
7334.00   0.66580514
7336.00   0.66684250
7338.00   0.66555258
7340.00   0.65915449
7342.00   0.64724388
7344.00   0.63817541
7346.00   0.62649377
7348.00   0.62196332
7350.00   0.62707827
7352.00   0.63375918
7354.00   0.63735638
7356.00   0.64079152
7358.00   0.64027254
7360.00   0.63550218
7362.00   0.63267144
7364.00   0.63037493
7366.00   0.62731701
7368.00   0.62455044
7370.00   0.61970647
7372.00   0.61389830
7374.00   0.60530665
7376.00   0.60363877
7378.00   0.60710128
7380.00   0.60917759
7382.00   0.61062918
7384.00   0.61293900
7386.00   0.61355545
7388.00   0.61222301
7390.00   0.61277421
7392.00   0.61574930
7394.00   0.61632047
7396.00   0.61391670
7398.00   0.61041214
7400.00   0.60914624
7402.00   0.60909271
7404.00   0.60953903
7406.00   0.61356958
7408.00   0.61374092
7410.00   0.60502815
7412.00   0.59479853
7414.00   0.59501346
7416.00   0.60226429
7418.00   0.60432212
7420.00   0.60309849
7422.00   0.60428069
7424.00   0.60822161
7426.00   0.61309505
7428.00   0.61629051
7430.00   0.61829585
7432.00   0.61872443
7434.00   0.61626635
7436.00   0.61599253
7438.00   0.61893670
7440.00   0.62129492
7442.00   0.61878854
7444.00   0.61241810
7446.00   0.60929118
7448.00   0.60656464
7450.00   0.60665607
7452.00   0.61030761
7454.00   0.61415599
7456.00   0.61764157
7458.00   0.62171346
7460.00   0.62279820
7462.00   0.62196122
7464.00   0.62102044
7466.00   0.61911706
7468.00   0.61658740
7470.00   0.61458375
7472.00   0.61024807
7474.00   0.60917904
7476.00   0.61339672
7478.00   0.61451584
7480.00   0.61137702
7482.00   0.60997669
7484.00   0.61115807
7486.00   0.61177925
7488.00   0.61187553
7490.00   0.61154221
7492.00   0.61050546
7494.00   0.60896971
7496.00   0.60752763
7498.00   0.60701160
7500.00   0.60948869
7502.00   0.60765481
7504.00   0.60058127
7506.00   0.59805842
7508.00   0.59883376
7510.00   0.59935693
7512.00   0.60233452
7514.00   0.60830428
7516.00   0.60847763
7518.00   0.60396244
7520.00   0.60135176
7522.00   0.59907196
7524.00   0.59706614
7526.00   0.59676574
7528.00   0.59871252
7530.00   0.59928783
7532.00   0.59920979
7534.00   0.59927404
7536.00   0.60046651
7538.00   0.59949325
7540.00   0.59544375
7542.00   0.59098117
7544.00   0.59031455
7546.00   0.59255586
7548.00   0.59120357
7550.00   0.58712848
7552.00   0.58483237
7554.00   0.58267585
7556.00   0.58105948
7558.00   0.58334396
7560.00   0.58923119
7562.00   0.59045748
7564.00   0.58839452
7566.00   0.58939979
7568.00   0.59400860
7570.00   0.59496156
7572.00   0.59072445
7574.00   0.58257027
7576.00   0.57849147
7578.00   0.57465301
7580.00   0.57614328
7582.00   0.58542222
7584.00   0.59186335
7586.00   0.59153974
7588.00   0.59028451
7590.00   0.58868061
7592.00   0.58343993
7594.00   0.58134911
7596.00   0.58043652
7598.00   0.58294626
7600.00   0.59171303
7602.00   0.60311578
7604.00   0.60399377
7606.00   0.59101415
7608.00   0.58167146
7610.00   0.57299103
7612.00   0.57226511
7614.00   0.56857386
7616.00   0.56651565
7618.00   0.56692838
7620.00   0.56869702
7622.00   0.56637978
7624.00   0.55932631
7626.00   0.55446060
7628.00   0.55727457
7630.00   0.56390341
7632.00   0.56518992
7634.00   0.56433700
7636.00   0.56394543
7638.00   0.56249986
7640.00   0.56133025
7642.00   0.56155686
7644.00   0.56181661
7646.00   0.55939343
7648.00   0.55321866
7650.00   0.55263992
7652.00   0.55807413
7654.00   0.56045259
7656.00   0.55915775
7658.00   0.55571606
7660.00   0.55132589
7662.00   0.54470917
7664.00   0.54284106
7666.00   0.54488406
7668.00   0.54646327
7670.00   0.54840614
7672.00   0.54954425
7674.00   0.54906776
7676.00   0.54809049
7678.00   0.54868194
7680.00   0.55087366
7682.00   0.55043806
7684.00   0.54626999
7686.00   0.54393546
7688.00   0.54574554
7690.00   0.55103868
7692.00   0.55173101
7694.00   0.55028760
7696.00   0.54516167
7698.00   0.53542840
7700.00   0.53123453
7702.00   0.53459814
7704.00   0.54373409
7706.00   0.55102348
7708.00   0.56094450
7710.00   0.56285208
7712.00   0.55868563
7714.00   0.55424090
7716.00   0.54655476
7718.00   0.53634649
7720.00   0.53388236
7722.00   0.53821538
7724.00   0.54182354
7726.00   0.54718324
7728.00   0.55034539
7730.00   0.55362377
7732.00   0.55853412
7734.00   0.55951897
7736.00   0.55596137
7738.00   0.55506885
7740.00   0.55394076
7742.00   0.55657995
7744.00   0.56620148
7746.00   0.57886304
7748.00   0.58218392
7750.00   0.57797549
7752.00   0.57113102
7754.00   0.55631883
7756.00   0.54756736
7758.00   0.54603316
7760.00   0.54754456
7762.00   0.54735468
7764.00   0.54862967
7766.00   0.55026929
7768.00   0.55244834
7770.00   0.55450760
7772.00   0.55729112
7774.00   0.55841002
7776.00   0.55900330
7778.00   0.55969482
7780.00   0.56165722
7782.00   0.56487321
7784.00   0.56882373
7786.00   0.57247329
7788.00   0.57400550
7790.00   0.57624626
7792.00   0.57787373
7794.00   0.57272514
7796.00   0.55805581
7798.00   0.55331762
7800.00   0.55696215
7802.00   0.56368033
7804.00   0.57209651
7806.00   0.58010195
7808.00   0.57946740
7810.00   0.56970531
7812.00   0.57073088
7814.00   0.58182057
7816.00   0.59044619
7818.00   0.59437974
7820.00   0.59218103
7822.00   0.58791230
7824.00   0.57965996
7826.00   0.57719147
7828.00   0.57725279
7830.00   0.58002255
7832.00   0.58495772
7834.00   0.59068618
7836.00   0.59620430
7838.00   0.60205062
7840.00   0.60420412
7842.00   0.60240813
7844.00   0.60334953
7846.00   0.60394522
7848.00   0.60361721
7850.00   0.60590996
7852.00   0.60893182
7854.00   0.60473096
7856.00   0.59064353
7858.00   0.58599967
7860.00   0.58927508
7862.00   0.59266649
7864.00   0.59331944
7866.00   0.59233441
7868.00   0.59029788
7870.00   0.58535087
7872.00   0.58602013
7874.00   0.58998152
7876.00   0.59345076
7878.00   0.59823479
7880.00   0.60240835
7882.00   0.60155336
7884.00   0.59781245
7886.00   0.59387690
7888.00   0.58658948
7890.00   0.57920456
7892.00   0.57588490
7894.00   0.57570702
7896.00   0.57594758
7898.00   0.57769299
7900.00   0.57899618
7902.00   0.58178922
7904.00   0.58484999
7906.00   0.58403331
7908.00   0.58114662
7910.00   0.58431035
7912.00   0.59167433
7914.00   0.59334646
7916.00   0.59233272
7918.00   0.59245541
7920.00   0.58814100
7922.00   0.58245462
7924.00   0.58065581
7926.00   0.58133894
7928.00   0.58038326
7930.00   0.58032892
7932.00   0.57889450
7934.00   0.57515021
7936.00   0.57016259
7938.00   0.56737008
7940.00   0.56670138
7942.00   0.56952009
7944.00   0.57971259
7946.00   0.58311941
7948.00   0.57930646
7950.00   0.57310679
7952.00   0.57028288
7954.00   0.57025451
7956.00   0.57321624
7958.00   0.58058306
7960.00   0.58560075
7962.00   0.59294659
7964.00   0.59457878
7966.00   0.58272064
7968.00   0.55847081
7970.00   0.55111898
7972.00   0.55585889
7974.00   0.55789669
7976.00   0.55862507
7978.00   0.56059044
7980.00   0.56078040
7982.00   0.55819530
7984.00   0.55930041
7986.00   0.56385054
7988.00   0.56645580
7990.00   0.56733090
7992.00   0.56672925
7994.00   0.56648918
7996.00   0.56269364
7998.00   0.55444922
8000.00   0.53972561
8002.00   0.53376340
8004.00   0.53000388
8006.00   0.52870822
8008.00   0.53576210
8010.00   0.54817253
8012.00   0.55137331
8014.00   0.54671539
8016.00   0.54937664
8018.00   0.56094035
8020.00   0.56446622
8022.00   0.55724853
8024.00   0.54479796
8026.00   0.53232802
8028.00   0.51516757
8030.00   0.50862440
8032.00   0.51078304
8034.00   0.51485723
8036.00   0.52213198
8038.00   0.52975959
8040.00   0.53559717
8042.00   0.54203735
8044.00   0.54489955
8046.00   0.54348580
8048.00   0.54224632
8050.00   0.54149247
8052.00   0.54205217
8054.00   0.53977458
8056.00   0.53156431
8058.00   0.52702573
8060.00   0.52511924
8062.00   0.52413229
8064.00   0.52219030
8066.00   0.52055073
8068.00   0.51772101
8070.00   0.51221008
8072.00   0.51227896
8074.00   0.51788585
8076.00   0.52267508
8078.00   0.52621529
8080.00   0.52551052
8082.00   0.52081258
8084.00   0.51376601
8086.00   0.51189687
8088.00   0.51449204
8090.00   0.51355631
8092.00   0.50870563
8094.00   0.50665987
8096.00   0.51078308
8098.00   0.51917893
8100.00   0.52234729
8102.00   0.52333159
8104.00   0.52090616
8106.00   0.51342259
8108.00   0.50807941
8110.00   0.50662592
8112.00   0.50760603
8114.00   0.50835822
8116.00   0.51041198
8118.00   0.51035768
8120.00   0.50697635
8122.00   0.50445426
8124.00   0.50523970
8126.00   0.50861684
8128.00   0.51187394
8130.00   0.51662241
8132.00   0.51807780
8134.00   0.51628850
8136.00   0.51536742
8138.00   0.51503784
8140.00   0.51542180
8142.00   0.51738805
8144.00   0.52057933
8146.00   0.51870317
8148.00   0.51037266
8150.00   0.50707896
8152.00   0.50814260
8154.00   0.51196013
8156.00   0.51647923
8158.00   0.52259825
8160.00   0.52653005
8162.00   0.52822691
8164.00   0.53083564
8166.00   0.53544065
8168.00   0.53935299
8170.00   0.54115239
8172.00   0.54244965
8174.00   0.54479671
8176.00   0.54875513
8178.00   0.54929542
8180.00   0.54675689
8182.00   0.54650964
8184.00   0.55013955
8186.00   0.55778608
8188.00   0.55885004
8190.00   0.55431509
8192.00   0.55097912
8194.00   0.55131533
8196.00   0.55314334
8198.00   0.55502021
8200.00   0.55775172
8202.00   0.55517687
8204.00   0.54689996
8206.00   0.54450206
8208.00   0.54732711
8210.00   0.54977023
8212.00   0.55128397
8214.00   0.55123398
8216.00   0.55224026
8218.00   0.55573475
8220.00   0.55789583
8222.00   0.55837745
8224.00   0.55594345
8226.00   0.55073003
8228.00   0.54200886
8230.00   0.54263407
8232.00   0.55273160
8234.00   0.56001629
8236.00   0.56731796
8238.00   0.56953710
8240.00   0.56680238
8242.00   0.56061117
8244.00   0.55765508
8246.00   0.55689140
8248.00   0.55604678
8250.00   0.55534169
8252.00   0.55315590
8254.00   0.55118968
8256.00   0.55005671
8258.00   0.54829972
8260.00   0.54517848
8262.00   0.54500923
8264.00   0.54804766
8266.00   0.55041647
8268.00   0.55186225
8270.00   0.55237501
8272.00   0.54974743
8274.00   0.54251475
8276.00   0.53941735
8278.00   0.53751746
8280.00   0.53898584
8282.00   0.54499191
8284.00   0.55204711
8286.00   0.55470603
8288.00   0.55586058
8290.00   0.55669812
8292.00   0.55705152
8294.00   0.55331188
8296.00   0.54820897
8298.00   0.54461190
8300.00   0.53903894
8302.00   0.53286172
8304.00   0.53147994
8306.00   0.53336680
8308.00   0.53453610
8310.00   0.53747254
8312.00   0.53971524
8314.00   0.53780377
8316.00   0.53255726
8318.00   0.53057341
8320.00   0.53077388
8322.00   0.52883512
8324.00   0.52485723
8326.00   0.52150248
8328.00   0.51756663
8330.00   0.51213685
8332.00   0.51053567
8334.00   0.51062089
8336.00   0.51223717
8338.00   0.51825915
8340.00   0.52326574
8342.00   0.51997223
8344.00   0.51213993
8346.00   0.50559415
8348.00   0.49382092
8350.00   0.48945075
8352.00   0.49277808
8354.00   0.49822142
8356.00   0.50217393
8358.00   0.50629739
8360.00   0.51067765
8362.00   0.51591308
8364.00   0.51447476
8366.00   0.50327169
8368.00   0.49858450
8370.00   0.50214008
8372.00   0.50971215
8374.00   0.51546523
8376.00   0.52176198
8378.00   0.52211484
8380.00   0.51765581
8382.00   0.51358987
8384.00   0.50478816
8386.00   0.49364373
8388.00   0.49254809
8390.00   0.50174060
8392.00   0.50693850
8394.00   0.51511736
8396.00   0.51639473
8398.00   0.51037498
8400.00   0.49926585
8402.00   0.48881581
8404.00   0.47661843
8406.00   0.47463253
8408.00   0.48219233
8410.00   0.48937440
8412.00   0.49898528
8414.00   0.50467273
8416.00   0.50222878
8418.00   0.49307598
8420.00   0.49309856
8422.00   0.50094264
8424.00   0.50567100
8426.00   0.50964044
8428.00   0.50704762
8430.00   0.49780346
8432.00   0.48499537
8434.00   0.47607932
8436.00   0.46553911
8438.00   0.46246804
8440.00   0.46736066
8442.00   0.47322552
8444.00   0.47869577
8446.00   0.48486498
8448.00   0.48798057
8450.00   0.48757504
8452.00   0.48766600
8454.00   0.48298146
8456.00   0.48536313
8458.00   0.50061503
8460.00   0.52024886
8462.00   0.52441121
8464.00   0.51730903
8466.00   0.51208850
8468.00   0.50412221
8470.00   0.49860778
8472.00   0.49555221
8474.00   0.49540905
8476.00   0.49527214
8478.00   0.49483559
8480.00   0.49413202
8482.00   0.49356382
8484.00   0.49292789
8486.00   0.49158529
8488.00   0.49111856
8490.00   0.49206262
8492.00   0.49441527
8494.00   0.49838813
8496.00   0.50647495
8498.00   0.51066569
8500.00   0.51251098
8502.00   0.50893216
8504.00   0.49938528
8506.00   0.48411730
8508.00   0.47592040
8510.00   0.46875108
8512.00   0.47007071
8514.00   0.48189097
8516.00   0.49139374
8518.00   0.49557266
8520.00   0.49954549
8522.00   0.49902138
8524.00   0.49175813
8526.00   0.48898022
8528.00   0.48879819
8530.00   0.48816032
8532.00   0.49081739
8534.00   0.49668698
8536.00   0.49641954
8538.00   0.49250501
8540.00   0.48687583
8542.00   0.47440904
8544.00   0.46717480
8546.00   0.47107375
8548.00   0.47715943
8550.00   0.47505615
8552.00   0.46785618
8554.00   0.46416743
8556.00   0.45891243
8558.00   0.45635548
8560.00   0.46052000
8562.00   0.47011857
8564.00   0.47429702
8566.00   0.47608513
8568.00   0.47675912
8570.00   0.47514012
8572.00   0.47444089
8574.00   0.47788185
8576.00   0.48330826
8578.00   0.48444265
8580.00   0.48311247
8582.00   0.48216060
8584.00   0.48016372
8586.00   0.47881302
8588.00   0.47883372
8590.00   0.47852822
8592.00   0.47812582
8594.00   0.47846020
8596.00   0.47583852
8598.00   0.46780905
8600.00   0.46513293
8602.00   0.46831555
8604.00   0.47382610
8606.00   0.47953525
8608.00   0.48747688
8610.00   0.49025317
8612.00   0.48806150
8614.00   0.48718427
8616.00   0.48779903
8618.00   0.48874757
8620.00   0.48884585
8622.00   0.48874958
8624.00   0.48960684
8626.00   0.49169157
8628.00   0.49073561
8630.00   0.48638079
8632.00   0.48427908
8634.00   0.48510533
8636.00   0.48849923
8638.00   0.48789093
8640.00   0.48376549
8642.00   0.48152724
8644.00   0.48071082
8646.00   0.48151556
8648.00   0.48668210
8650.00   0.49492154
8652.00   0.49461517
8654.00   0.48663181
8656.00   0.48416733
8658.00   0.48478842
8660.00   0.48673066
8662.00   0.49094144
8664.00   0.49615738
8666.00   0.49838860
8668.00   0.49896110
8670.00   0.49733147
8672.00   0.49089198
8674.00   0.48729958
8676.00   0.48747941
8678.00   0.48821125
8680.00   0.48884507
8682.00   0.49101036
8684.00   0.49169507
8686.00   0.49113113
8688.00   0.49031249
8690.00   0.48888029
8692.00   0.48692128
8694.00   0.48604583
8696.00   0.48656782
8698.00   0.48942946
8700.00   0.49649254
8702.00   0.49945093
8704.00   0.49950340
8706.00   0.49808912
8708.00   0.49586735
8710.00   0.49264514
8712.00   0.49191044
8714.00   0.49260406
8716.00   0.49350763
8718.00   0.49723301
8720.00   0.50099735
8722.00   0.49836175
8724.00   0.49025898
8726.00   0.48612770
8728.00   0.48169959
8730.00   0.48098722
8732.00   0.48699889
8734.00   0.49414329
8736.00   0.49600432
8738.00   0.49526372
8740.00   0.49311904
8742.00   0.48775808
8744.00   0.48440861
8746.00   0.48274932
8748.00   0.48132251
8750.00   0.48158409
8752.00   0.48644631
8754.00   0.49113462
8756.00   0.49833135
8758.00   0.49923745
8760.00   0.49600449
8762.00   0.49013717
8764.00   0.48226468
8766.00   0.47315603
8768.00   0.46839698
8770.00   0.46656481
8772.00   0.46571692
8774.00   0.46573758
8776.00   0.46609219
8778.00   0.46645241
8780.00   0.46352697
8782.00   0.46016460
8784.00   0.45710007
8786.00   0.46318701
8788.00   0.48300394
8790.00   0.48987216
8792.00   0.48325446
8794.00   0.47327898
8796.00   0.46914175
8798.00   0.46689677
8800.00   0.46657229
8802.00   0.46920269
8804.00   0.47123988
8806.00   0.47475473
8808.00   0.47880497
8810.00   0.47947024
8812.00   0.47757142
8814.00   0.47850021
8816.00   0.48096079
8818.00   0.48279941
8820.00   0.48789112
8822.00   0.49211868
8824.00   0.48275050
8826.00   0.45638708
8828.00   0.44823258
8830.00   0.45130989
8832.00   0.45404284
8834.00   0.45445836
8836.00   0.45489121
8838.00   0.45427099
8840.00   0.45317383
8842.00   0.45610800
8844.00   0.46307963
8846.00   0.46642873
8848.00   0.46784703
8850.00   0.46939895
8852.00   0.46898963
8854.00   0.46663079
8856.00   0.46997236
8858.00   0.47916986
8860.00   0.48545883
8862.00   0.49252221
8864.00   0.49279968
8866.00   0.48406292
8868.00   0.46973615
8870.00   0.45856422
8872.00   0.44330607
8874.00   0.44216095
8876.00   0.45525679
8878.00   0.47013690
8880.00   0.48768722
8882.00   0.50288361
8884.00   0.49960659
8886.00   0.48058956
8888.00   0.46745398
8890.00   0.45094417
8892.00   0.44181309
8894.00   0.44379465
8896.00   0.44987767
8898.00   0.45410543
8900.00   0.46296241
8902.00   0.46675362
8904.00   0.46763027
8906.00   0.46186852
8908.00   0.44968105
8910.00   0.44220074
8912.00   0.44670218
8914.00   0.45802609
8916.00   0.45977091
8918.00   0.46074168
8920.00   0.45114062
8922.00   0.42039162
8924.00   0.39608804
8926.00   0.39979315
8928.00   0.42153397
8930.00   0.42820589
8932.00   0.42630567
8934.00   0.43144622
8936.00   0.44812866
8938.00   0.46354969
8940.00   0.46499249
8942.00   0.45690771
8944.00   0.44896152
8946.00   0.43123216
8948.00   0.42731449
8950.00   0.44274359
8952.00   0.45528604
8954.00   0.45379688
8956.00   0.44660586
8958.00   0.43630007
8960.00   0.41566839
8962.00   0.40547817
8964.00   0.40231957
8966.00   0.40438239
8968.00   0.41401606
8970.00   0.42933649
8972.00   0.43202556
8974.00   0.42419154
8976.00   0.42323884
8978.00   0.42873308
8980.00   0.43459799
8982.00   0.43762694
8984.00   0.44017932
8986.00   0.44237258
8988.00   0.44213442
8990.00   0.44029691
8992.00   0.43604382
8994.00   0.43737628
8996.00   0.44422733
8998.00   0.45276477
9000.00   0.45081095
9002.00   0.44109118
9004.00   0.43451899
9006.00   0.42426325
9008.00   0.42211746
9010.00   0.43363877
9012.00   0.45038438
9014.00   0.46016248
9016.00   0.46758823
9018.00   0.46839444
9020.00   0.46033445
9022.00   0.45595847
9024.00   0.45152617
9026.00   0.44883721
9028.00   0.45286298
9030.00   0.45739232
9032.00   0.45979252
9034.00   0.46455401
9036.00   0.46736148
9038.00   0.46042325
9040.00   0.45180900
9042.00   0.45248013
9044.00   0.45888263
9046.00   0.45796927
9048.00   0.45322584
9050.00   0.44745185
9052.00   0.43841557
9054.00   0.43115212
9056.00   0.42808749
9058.00   0.42838634
9060.00   0.43225365
9062.00   0.44348917
9064.00   0.44772060
9066.00   0.44709369
9068.00   0.44563361
9070.00   0.44327554
9072.00   0.43998316
9074.00   0.43764999
9076.00   0.43390100
9078.00   0.42914321
9080.00   0.42373250
9082.00   0.42627524
9084.00   0.43141113
9086.00   0.43656609
9088.00   0.43919212
9090.00   0.43960957
9092.00   0.43815427
9094.00   0.43481286
9096.00   0.43249653
9098.00   0.42739957
9100.00   0.42303238
9102.00   0.42514454
9104.00   0.43135691
9106.00   0.43379356
9108.00   0.43520855
9110.00   0.43655637
9112.00   0.43624540
9114.00   0.43530349
9116.00   0.43075095
9118.00   0.42105930
9120.00   0.41928531
9122.00   0.42482604
9124.00   0.42892664
9126.00   0.43305333
9128.00   0.43722600
9130.00   0.43808410
9132.00   0.43604117
9134.00   0.43387138
9136.00   0.42836476
9138.00   0.42754325
9140.00   0.43234486
9142.00   0.43892943
9144.00   0.44419161
9146.00   0.45282036
9148.00   0.45646272
9150.00   0.45539976
9152.00   0.45529147
9154.00   0.45942150
9156.00   0.46105767
9158.00   0.45918139
9160.00   0.45926872
9162.00   0.45985117
9164.00   0.46091262
9166.00   0.46130950
9168.00   0.46322414
9170.00   0.46433957
9172.00   0.46486449
9174.00   0.46496253
9176.00   0.46542044
9178.00   0.46708245
9180.00   0.46695172
9182.00   0.46456243
9184.00   0.46411861
9186.00   0.46822952
9188.00   0.47654407
9190.00   0.48040959
9192.00   0.48373465
9194.00   0.48528198
9196.00   0.48502229
9198.00   0.48485223
9200.00   0.48859974
9202.00   0.49346470
9204.00   0.49446372
9206.00   0.49347563
9208.00   0.49342630
9210.00   0.49349746
9212.00   0.49569117
9214.00   0.49877229
9216.00   0.50033674
9218.00   0.50428041
9220.00   0.51083782
9222.00   0.51673250
9224.00   0.52414605
9226.00   0.52903692
9228.00   0.52855489
9230.00   0.52399543
9232.00   0.52029909
9234.00   0.51557930
9236.00   0.51245344
9238.00   0.51124786
9240.00   0.50936018
9242.00   0.50671338
9244.00   0.50187607
9246.00   0.49408137
9248.00   0.48295711
9250.00   0.47745419
9252.00   0.47357100
9254.00   0.47524005
9256.00   0.48765785
9258.00   0.49803071
9260.00   0.49580248
9262.00   0.48535023
9264.00   0.47897561
9266.00   0.47130480
9268.00   0.46735479
9270.00   0.46579130
9272.00   0.46724232
9274.00   0.47094843
9276.00   0.47364013
9278.00   0.47565321
9280.00   0.47726685
9282.00   0.48071768
9284.00   0.48701857
9286.00   0.49094143
9288.00   0.48976111
9290.00   0.48579039
9292.00   0.48017774
9294.00   0.46803642
9296.00   0.47058428
9298.00   0.48342985
9300.00   0.50118221
9302.00   0.53521354
9304.00   0.57732781
9306.00   0.59406807
9308.00   0.60496396
9310.00   0.58559585
9312.00   0.52442344
9314.00   0.46764828
9316.00   0.42505369
9318.00   0.39704932
9320.00   0.38974410
9322.00   0.40355353
9324.00   0.40839457
9326.00   0.41222771
9328.00   0.41717853
9330.00   0.42392054
9332.00   0.43431648
9334.00   0.43844079
9336.00   0.43333253
9338.00   0.42987626
9340.00   0.42443158
9342.00   0.42263158
9344.00   0.42595811
9346.00   0.43257802
9348.00   0.43080168
9350.00   0.42738560
9352.00   0.42532900
9354.00   0.42267750
9356.00   0.41590817
9358.00   0.40880885
9360.00   0.41180809
9362.00   0.42488552
9364.00   0.44768514
9366.00   0.46271284
9368.00   0.48255304
9370.00   0.47634665
9372.00   0.43838966
9374.00   0.40561328
9376.00   0.38852892
9378.00   0.36947900
9380.00   0.35388347
9382.00   0.33909198
9384.00   0.34582161
9386.00   0.37442187
9388.00   0.39458563
9390.00   0.40296621
9392.00   0.41091310
9394.00   0.42114960
9396.00   0.43366702
9398.00   0.43469044
9400.00   0.42558345
9402.00   0.41940121
9404.00   0.41546534
9406.00   0.41229574
9408.00   0.41005304
9410.00   0.40884718
9412.00   0.40406949
9414.00   0.38943860
9416.00   0.38821612
9418.00   0.41003107
9420.00   0.43373853
9422.00   0.43023604
9424.00   0.40872605
#9426.00   0.41227736
#9428.00   0.37147442
#9430.00   0.45244270
#9432.00   0.74079750
#9434.00   1.02224948
#9436.00   1.07914261
#9438.00   0.97654969
#9440.00   0.82883793
#9442.00   0.48205515
#9444.00   0.32276732
9446.00   0.33004681
9448.00   0.38532030
9450.00   0.40879771
9452.00   0.44319789
9454.00   0.44816478
9456.00   0.42814007
9458.00   0.40305492
9460.00   0.37027201
9462.00   0.35693072
9464.00   0.36903894
9466.00   0.39292963
9468.00   0.41166962
9470.00   0.43985952
9472.00   0.45509354
9474.00   0.45838086
9476.00   0.44175187
9478.00   0.39364083
9480.00   0.31924839
9482.00   0.31025505
9484.00   0.35448278
9486.00   0.38629162
9488.00   0.42213715
9490.00   0.44205560
9492.00   0.43610585
9494.00   0.41743804
9496.00   0.41312289
9498.00   0.40828850
9500.00   0.40380916
9502.00   0.40738608
9504.00   0.41970570
9506.00   0.42271646
9508.00   0.41974351
9510.00   0.41586071
9512.00   0.40742057
9514.00   0.40034311
9516.00   0.39280668
9518.00   0.38600838
9520.00   0.38169620
9522.00   0.38291620
9524.00   0.39137199
9526.00   0.40594849
9528.00   0.41418229
9530.00   0.41798978
9532.00   0.42772055
9534.00   0.43340580
9536.00   0.43232063
9538.00   0.43723415
9540.00   0.43938198
9542.00   0.43781004
9544.00   0.43328949
9546.00   0.44009789
9548.00   0.43960019
9550.00   0.43300168
9552.00   0.43123410
9554.00   0.42377322
9556.00   0.41468061
9558.00   0.39695461
9560.00   0.39878983
9562.00   0.41786602
9564.00   0.44125464
9566.00   0.45398008
9568.00   0.45268231
9570.00   0.44097560
9572.00   0.40738203
9574.00   0.39973350
9576.00   0.41092795
9578.00   0.42265106
9580.00   0.42854816
9582.00   0.43119069
9584.00   0.43062752
9586.00   0.42619652
9588.00   0.42129658
9590.00   0.41723008
9592.00   0.41412221
9594.00   0.40657422
9596.00   0.39702800
9598.00   0.39725477
9600.00   0.40687812
9602.00   0.41116941
9604.00   0.41302655
9606.00   0.40733208
9608.00   0.39652213
9610.00   0.39127739
9612.00   0.39488719
9614.00   0.40568039
9616.00   0.40889119
9618.00   0.41056789
9620.00   0.40726811
9622.00   0.39661113
9624.00   0.38415056
9626.00   0.37984600
9628.00   0.37995921
9630.00   0.38595585
9632.00   0.40499445
9634.00   0.41195308
9636.00   0.40414296
9638.00   0.38975125
9640.00   0.38022515
9642.00   0.37169503
9644.00   0.37301617
9646.00   0.38739240
9648.00   0.39311364
9650.00   0.39215599
9652.00   0.38881903
9654.00   0.38540993
9656.00   0.38153454
9658.00   0.38145995
9660.00   0.38493160
9662.00   0.38602010
9664.00   0.38642100
9666.00   0.38742687
9668.00   0.38801586
9670.00   0.38609220
9672.00   0.38594298
9674.00   0.38796062
9676.00   0.39063800
9678.00   0.39416637
9680.00   0.38850196
9682.00   0.37481354
9684.00   0.35820401
9686.00   0.35686722
9688.00   0.36751684
9690.00   0.37583841
9692.00   0.38064596
9694.00   0.38488800
9696.00   0.39579208
9698.00   0.40967869
9700.00   0.41144237
9702.00   0.40288824
9704.00   0.39444728
9706.00   0.37885778
9708.00   0.36414329
9710.00   0.35808801
9712.00   0.36333516
9714.00   0.36563721
9716.00   0.36739810
9718.00   0.36593406
9720.00   0.36175841
9722.00   0.35792709
9724.00   0.35220807
9726.00   0.35364494
9728.00   0.36857160
9730.00   0.39608422
9732.00   0.39994413
9734.00   0.38317718
9736.00   0.36978567
9738.00   0.35865658
9740.00   0.35415451
9742.00   0.35400486
9744.00   0.35891840
9746.00   0.35808885
9748.00   0.35379335
9750.00   0.35188524
9752.00   0.35635154
9754.00   0.36250550
9756.00   0.36185213
9758.00   0.35633138
9760.00   0.35403950
9762.00   0.35310552
9764.00   0.35281499
9766.00   0.35219132
9768.00   0.35101211
9770.00   0.34731866
9772.00   0.33883175
9774.00   0.34298001
9776.00   0.35830321
9778.00   0.37468567
9780.00   0.39615270
9782.00   0.40825073
9784.00   0.40877263
9786.00   0.40524759
9788.00   0.39039245
9790.00   0.35611554
9792.00   0.34052825
9794.00   0.34549175
9796.00   0.34819114
9798.00   0.34249495
9800.00   0.33781810
9802.00   0.33803140
9804.00   0.34083052
9806.00   0.34135232
9808.00   0.34632870
9810.00   0.34909697
9812.00   0.34269291
9814.00   0.33813570
9816.00   0.34067437
9818.00   0.34633041
9820.00   0.34729682
9822.00   0.34815861
9824.00   0.35140513
9826.00   0.35326355
9828.00   0.35307057
9830.00   0.34988195
9832.00   0.33910538
9834.00   0.34017298
9836.00   0.35273698
9838.00   0.36641190
9840.00   0.38002560
9842.00   0.39031934
9844.00   0.38481163
9846.00   0.36229355
9848.00   0.35402013
9850.00   0.35265368
9852.00   0.35506283
9854.00   0.36148205
9856.00   0.37269336
9858.00   0.38481153
9860.00   0.39825073
9862.00   0.40377142
9864.00   0.40480120
9866.00   0.40254159
9868.00   0.39248060
9870.00   0.37731648
9872.00   0.36151097
9874.00   0.33670765
9876.00   0.32692495
9878.00   0.32781751
9880.00   0.33812427
9882.00   0.35726954
9884.00   0.37716453
9886.00   0.38492840
9888.00   0.38158367
9890.00   0.37792580
9892.00   0.36901176
9894.00   0.35949079
9896.00   0.34729389
9898.00   0.34159232
9900.00   0.34239749
9902.00   0.35120510
9904.00   0.36264708
9906.00   0.38647858
9908.00   0.38693784
9910.00   0.36327565
9912.00   0.34163200
9914.00   0.33021112
9916.00   0.32263693
9918.00   0.32432496
9920.00   0.34164690
9922.00   0.34550900
9924.00   0.33252974
9926.00   0.32496904
9928.00   0.32915684
9930.00   0.33686591
9932.00   0.35357261
9934.00   0.38659974
9936.00   0.40202095
9938.00   0.40482431
9940.00   0.40161057
9942.00   0.39409263
9944.00   0.38220189
9946.00   0.37154668
9948.00   0.36263323
9950.00   0.35656670
9952.00   0.34872497
9954.00   0.34912852
9956.00   0.36186111
9958.00   0.37361718
9960.00   0.37199399
9962.00   0.35854393
9964.00   0.35248599
9966.00   0.35345021
9968.00   0.34933839
9970.00   0.34077900
9972.00   0.34214680
9974.00   0.34601069
9976.00   0.35301973
9978.00   0.35303688
9980.00   0.34675621
9982.00   0.34005541
9984.00   0.33748444
9986.00   0.34165350
9988.00   0.34518769
9990.00   0.35054123
9992.00   0.34290263
9994.00   0.31480590
9996.00   0.30304601
9998.00   0.31414972
10000.00   0.33330451
10002.00   0.34510589
10004.00   0.35546633
10006.00   0.35923030
10008.00   0.35618338
10010.00   0.35497728
10012.00   0.35181846
10014.00   0.34708463
10016.00   0.34609019
10018.00   0.33327054
10020.00   0.32422172
10022.00   0.32308259
10024.00   0.32820508
10026.00   0.32820414
10028.00   0.33090671
10030.00   0.34046221
10032.00   0.34435309
10034.00   0.35350218
10036.00   0.37371471
10038.00   0.37521806
10040.00   0.35409131
10042.00   0.34877719
10044.00   0.36620383
10046.00   0.39100452
10048.00   0.39769832
10050.00   0.39953911
10052.00   0.39121809
10054.00   0.36053233
10056.00   0.34527663
10058.00   0.35652220
10060.00   0.38428856
10062.00   0.40733164
10064.00   0.42803775
10066.00   0.41868478
10068.00   0.37051818
10070.00   0.35382201
10072.00   0.35257814
10074.00   0.35884483
10076.00   0.37625455
10078.00   0.40685036
10080.00   0.41735986
10082.00   0.42012515
10084.00   0.40900787
10086.00   0.37185328
10088.00   0.33671380
10090.00   0.33824246
10092.00   0.36417927
10094.00   0.37026234
10096.00   0.36668251
10098.00   0.37357575
10100.00   0.38532269
10102.00   0.38941360
10104.00   0.38949620
10106.00   0.38229121
10108.00   0.37961270
10110.00   0.37649205
10112.00   0.38787164
10114.00   0.41648002
10116.00   0.43161447
10118.00   0.43201540
10120.00   0.43699069
10122.00   0.44272411
10124.00   0.45257574
10126.00   0.43438638
10128.00   0.37994031
10130.00   0.33806788
10132.00   0.32823089
10134.00   0.34065322
10136.00   0.35409778
10138.00   0.38490644
10140.00   0.39405175
10142.00   0.38157488
10144.00   0.37829108
10146.00   0.38854484
10148.00   0.39918333
10150.00   0.40461806
10152.00   0.40815234
10154.00   0.40476009
10156.00   0.39916045
10158.00   0.39168183
10160.00   0.37955124
10162.00   0.39410572
10164.00   0.39988011
10166.00   0.37784569
10168.00   0.37703122
10170.00   0.40916558
10172.00   0.43247781
10174.00   0.43661578
10176.00   0.42922363
10178.00   0.39196778
10180.00   0.31699219
10182.00   0.30563801
10184.00   0.35308613
10186.00   0.38709532
10188.00   0.42243362
10190.00   0.45523894
10192.00   0.45426129
10194.00   0.42678282
10196.00   0.42106570
10198.00   0.42736081
10200.00   0.42852668
10202.00   0.42727556
10204.00   0.41239299
10206.00   0.40046019
10208.00   0.41666362
10210.00   0.40648759
10212.00   0.37952193
10214.00   0.33644247
10216.00   0.28521391
10218.00   0.25210259
10220.00   0.25258039
10222.00   0.28189832
10224.00   0.29994406
10226.00   0.31790646
10228.00   0.33143041
10230.00   0.34540880
10232.00   0.35358857
10234.00   0.33042753
10236.00   0.28900725
10238.00   0.29520146
10240.00   0.34930221
10242.00   0.35741962
10244.00   0.33228452
10246.00   0.31253137
10248.00   0.30767768
10250.00   0.31088352
10252.00   0.30991449
10254.00   0.30824944
10256.00   0.32577438
10258.00   0.37268125
10260.00   0.39778706
10262.00   0.39737530
10264.00   0.38947631
10266.00   0.38958405
10268.00   0.39314575
10270.00   0.37399893
10272.00   0.31486197
10274.00   0.27661629
10276.00   0.27864114
10278.00   0.34337689
10280.00   0.43744514
10282.00   0.59554913
10284.00   0.62626066
10286.00   0.54693878
10288.00   0.45613647
10290.00   0.38482170
10292.00   0.34527602
10294.00   0.30632640
10296.00   0.27637929
10298.00   0.28427309
10300.00   0.34237066
10302.00   0.35918372
10304.00   0.37030376
10306.00   0.37981029
10308.00   0.36323028
10310.00   0.32806277
10312.00   0.33049822
10314.00   0.36765681
10316.00   0.38207062
10318.00   0.37937795
10320.00   0.39011190
10322.00   0.40653771
10324.00   0.41681080
10326.00   0.41932992
10328.00   0.41164084
10330.00   0.40166321
10332.00   0.38548337
10334.00   0.37737680
10336.00   0.38728331
10338.00   0.39725098
10340.00   0.36970480
10342.00   0.29405276
10344.00   0.27840053
10346.00   0.30191526
10348.00   0.32469566
10350.00   0.34579535
10352.00   0.36547134
10354.00   0.36121337
10356.00   0.31892412
10358.00   0.31934213
10360.00   0.36334668
10362.00   0.38183447
10364.00   0.36508616
10366.00   0.35296551
10368.00   0.34577150
10370.00   0.35017191
10372.00   0.35987150
10374.00   0.39044562
10376.00   0.38039000
10378.00   0.35621794
10380.00   0.32890826
10382.00   0.33492677
10384.00   0.39997292
10386.00   0.43942943
10388.00   0.48320608
10390.00   0.47607966
10392.00   0.44405214
10394.00   0.41056411
10396.00   0.38773999
10398.00   0.36868444
10400.00   0.34424832
10402.00   0.29235155
10404.00   0.28932210
10406.00   0.35132900
10408.00   0.41968840
10410.00   0.44000942
10412.00   0.40368177
10414.00   0.38088484
10416.00   0.34571741
10418.00   0.35058174
10420.00   0.37540442
10422.00   0.40043797
10424.00   0.39782891
10426.00   0.35494604
10428.00   0.32515388
10430.00   0.28706405
10432.00   0.27364728
10434.00   0.28546618
10436.00   0.31717690
10438.00   0.34465525
10440.00   0.34240444
10442.00   0.31402109
10444.00   0.25434575
10446.00   0.24332131
10448.00   0.26127128
10450.00   0.27035165
10452.00   0.29544459
10454.00   0.35741139
10456.00   0.38079236
10458.00   0.37732141
10460.00   0.36033209
10462.00   0.33158185
10464.00   0.30985139
10466.00   0.31117936
10468.00   0.33698442
10470.00   0.33798761
10472.00   0.32772551
10474.00   0.32488641
10476.00   0.33146639
10478.00   0.32050720
10480.00   0.28585928
10482.00   0.24016214
10484.00   0.23975759
10486.00   0.29557237
10488.00   0.29812967
10490.00   0.24708901
10492.00   0.21336796
10494.00   0.23512517
10496.00   0.28640004
10498.00   0.30377958
10500.00   0.31042602
10502.00   0.31085721
10504.00   0.30165689
10506.00   0.29219894
10508.00   0.28473842
10510.00   0.28077749
10512.00   0.29386676
10514.00   0.33127835
10516.00   0.33593442
10518.00   0.30771486
10520.00   0.29769741
10522.00   0.30569792
10524.00   0.31938621
10526.00   0.34518013
10528.00   0.36924908
10530.00   0.36431981
10532.00   0.32733559
10534.00   0.31736947
10536.00   0.31844609
10538.00   0.33444378
10540.00   0.34438938
10542.00   0.33866337
10544.00   0.33159317
10546.00   0.31524164
10548.00   0.30260587
10550.00   0.29481088
10552.00   0.29959979
10554.00   0.30225946
10556.00   0.29603928
10558.00   0.27764587
10560.00   0.24187818
10562.00   0.23086246
10564.00   0.24141657
10566.00   0.26146324
10568.00   0.28283044
10570.00   0.29676934
10572.00   0.29733735
10574.00   0.27738389
10576.00   0.28815799
10578.00   0.34081631
10580.00   0.36465954
10582.00   0.34347108
10584.00   0.31900953
10586.00   0.31272016
10588.00   0.31269424
10590.00   0.30455226
10592.00   0.28473458
10594.00   0.27578943
10596.00   0.29576796
10598.00   0.31164460
10600.00   0.29910656
10602.00   0.28208334
10604.00   0.28569237
10606.00   0.29795751
10608.00   0.30132315
10610.00   0.32433189
10612.00   0.34472293
10614.00   0.33829333
10616.00   0.31373043
10618.00   0.30611287
10620.00   0.30815278
10622.00   0.30552009
10624.00   0.29756292
10626.00   0.28822063
10628.00   0.27902013
10630.00   0.26431361
10632.00   0.25710179
10634.00   0.25217176
10636.00   0.25654487
10638.00   0.26470181
10640.00   0.28128486
10642.00   0.30756911
10644.00   0.33051104
10646.00   0.33126584
10648.00   0.31875184
10650.00   0.30552899
10652.00   0.26586858
10654.00   0.23499294
10656.00   0.25506730
10658.00   0.31379213
10660.00   0.33527887
10662.00   0.34113535
10664.00   0.33382259
10666.00   0.30684806
10668.00   0.28888794
10670.00   0.28587145
10672.00   0.28833584
10674.00   0.28652819
10676.00   0.28223886
10678.00   0.28068393
10680.00   0.27815804
10682.00   0.28408321
10684.00   0.29584675
10686.00   0.30778122
10688.00   0.31596681
10690.00   0.32621404
10692.00   0.33021223
10694.00   0.32701618
10696.00   0.32240919
10698.00   0.32277759
10700.00   0.31524768
10702.00   0.30380741
10704.00   0.29551970
10706.00   0.28720429
10708.00   0.27071245
10710.00   0.26586225
10712.00   0.27537200
10714.00   0.28042053
10716.00   0.28338337
10718.00   0.29130932
10720.00   0.29404924
10722.00   0.29227235
10724.00   0.28564910
10726.00   0.26818887
10728.00   0.25231649
10730.00   0.26301119
10732.00   0.29945544
10734.00   0.31612956
10736.00   0.32320105
10738.00   0.32619712
10740.00   0.33462713
10742.00   0.34662317
10744.00   0.34639369
10746.00   0.33780789
10748.00   0.33136429
10750.00   0.32099430
10752.00   0.30952371
10754.00   0.30542675
10756.00   0.31101890
10758.00   0.30968767
10760.00   0.30456682
10762.00   0.31609095
10764.00   0.34487100
10766.00   0.35395622
10768.00   0.34537389
10770.00   0.33493332
10772.00   0.31506523
10774.00   0.28704130
10776.00   0.26975600
10778.00   0.25148168
10780.00   0.25072376
10782.00   0.27511039
10784.00   0.29033605
10786.00   0.29991127
10788.00   0.31487421
10790.00   0.31010297
10792.00   0.28742497
10794.00   0.27311433
10796.00   0.25516050
10798.00   0.24177846
10800.00   0.24811153
10802.00   0.26902954
10804.00   0.28165990
10806.00   0.29728439
10808.00   0.30181423
10810.00   0.29325796
10812.00   0.28934228
10814.00   0.30007938
10816.00   0.31190876
10818.00   0.30494861
10820.00   0.29014424
10822.00   0.28325904
10824.00   0.28301948
10826.00   0.27707931
10828.00   0.26496796
10830.00   0.25687718
10832.00   0.27186620
10834.00   0.30280736
10836.00   0.31381382
10838.00   0.31940853
10840.00   0.31801936
10842.00   0.28483137
10844.00   0.25412468
10846.00   0.27449085
10848.00   0.33978312
10850.00   0.35762821
10852.00   0.35499153
10854.00   0.33708941
10856.00   0.29009149
10858.00   0.24446041
10860.00   0.23251582
10862.00   0.24787514
10864.00   0.26811686
10866.00   0.31514512
10868.00   0.32874404
10870.00   0.30894079
10872.00   0.29083239
10874.00   0.28706223
10876.00   0.29473165
10878.00   0.30747785
10880.00   0.33063429
10882.00   0.33063429
