# Converted from sn2014c_a.f_tellcor.fits
# wl (A)     fl (flam) 
4550.000000    1.353299
4555.000000    1.387726
4560.000000    1.501856
4565.000000    1.602327
4570.000000    1.689900
4575.000000    1.765612
4580.000000    1.834681
4585.000000    1.916177
4590.000000    2.015025
4595.000000    2.078746
4600.000000    2.079764
4605.000000    2.054718
4610.000000    2.121757
4615.000000    2.214426
4620.000000    2.241887
4625.000000    2.222365
4630.000000    2.211365
4635.000000    2.219374
4640.000000    2.199691
4645.000000    2.189366
4650.000000    2.181643
4655.000000    2.167584
4660.000000    2.181792
4665.000000    2.193848
4670.000000    2.199362
4675.000000    2.169255
4680.000000    2.103254
4685.000000    2.098696
4690.000000    2.139908
4695.000000    2.090086
4700.000000    2.012197
4705.000000    1.942296
4710.000000    1.861026
4715.000000    1.788209
4720.000000    1.741307
4725.000000    1.703895
4730.000000    1.655074
4735.000000    1.604889
4740.000000    1.539587
4745.000000    1.461606
4750.000000    1.428550
4755.000000    1.382637
4760.000000    1.312387
4765.000000    1.288725
4770.000000    1.223107
4775.000000    1.114198
4780.000000    1.042819
4785.000000    0.989228
4790.000000    0.985344
4795.000000    1.011312
4800.000000    1.037795
4805.000000    1.033613
4810.000000    1.016697
4815.000000    1.011734
4820.000000    1.002995
4825.000000    1.017076
4830.000000    1.033774
4835.000000    1.056801
4840.000000    1.083462
4845.000000    1.064951
4850.000000    1.035934
4855.000000    1.025362
4860.000000    1.035661
4865.000000    1.031648
4870.000000    1.053409
4875.000000    1.072046
4880.000000    1.043945
4885.000000    1.084331
4890.000000    1.149954
4895.000000    1.205436
4900.000000    1.262985
4905.000000    1.294222
4910.000000    1.378530
4915.000000    1.462440
4920.000000    1.533308
4925.000000    1.623122
4930.000000    1.687298
4935.000000    1.761290
4940.000000    1.847537
4945.000000    1.913515
4950.000000    1.981925
4955.000000    2.048975
4960.000000    2.079222
4965.000000    2.116964
4970.000000    2.167201
4975.000000    2.184247
4980.000000    2.140344
4985.000000    2.054651
4990.000000    1.955691
4995.000000    1.825029
5000.000000    1.703889
5005.000000    1.637034
5010.000000    1.585309
5015.000000    1.526824
5020.000000    1.483094
5025.000000    1.426506
5030.000000    1.357122
5035.000000    1.342840
5040.000000    1.337405
5045.000000    1.326482
5050.000000    1.319075
5055.000000    1.358121
5060.000000    1.386898
5065.000000    1.386825
5070.000000    1.397216
5075.000000    1.419067
5080.000000    1.464619
5085.000000    1.439958
5090.000000    1.464672
5095.000000    1.513923
5100.000000    1.510170
5105.000000    1.512814
5110.000000    1.553355
5115.000000    1.579881
5120.000000    1.566392
5125.000000    1.549767
5130.000000    1.554048
5135.000000    1.534769
5140.000000    1.631677
5145.000000    1.752584
5150.000000    1.646902
5155.000000    1.558112
5160.000000    1.549045
5165.000000    1.573514
5170.000000    1.544993
5175.000000    1.539849
5180.000000    1.554785
5185.000000    1.585148
5190.000000    1.628488
5195.000000    1.670230
5200.000000    1.702429
5205.000000    1.757035
5210.000000    1.821211
5215.000000    1.850864
5220.000000    1.902038
5225.000000    1.934023
5230.000000    1.980724
5235.000000    2.030560
5240.000000    2.100725
5245.000000    2.208174
5250.000000    2.311794
5255.000000    2.378363
5260.000000    2.413493
5265.000000    2.494434
5270.000000    2.583205
5275.000000    2.625474
5280.000000    2.655534
5285.000000    2.758554
5290.000000    2.832343
5295.000000    2.882695
5300.000000    2.949292
5305.000000    3.004872
5310.000000    3.001501
5315.000000    2.999263
5320.000000    3.052493
5325.000000    3.098670
5330.000000    3.096265
5335.000000    3.144497
5340.000000    3.176452
5345.000000    3.160698
5350.000000    3.150032
5355.000000    3.177585
5360.000000    3.129306
5365.000000    3.111751
5370.000000    3.094051
5375.000000    3.067500
5380.000000    3.064777
5385.000000    3.086054
5390.000000    2.991307
5395.000000    2.931479
5400.000000    2.956261
5405.000000    2.935520
5410.000000    2.919592
5415.000000    2.930301
5420.000000    2.941703
5425.000000    2.971900
5430.000000    2.974095
5435.000000    2.978508
5440.000000    2.990431
5445.000000    3.061513
5450.000000    3.208961
5455.000000    3.257322
5460.000000    3.212655
5465.000000    3.247755
5470.000000    3.359582
5475.000000    3.400660
5480.000000    3.407486
5485.000000    3.437334
5490.000000    3.476646
5495.000000    3.481823
5500.000000    3.459737
5505.000000    3.449191
5510.000000    3.453404
5515.000000    3.443455
5520.000000    3.423695
5525.000000    3.426004
5530.000000    3.367091
5535.000000    3.356695
5540.000000    3.338657
5545.000000    3.306104
5550.000000    3.247706
5555.000000    3.244043
5560.000000    3.257437
5565.000000    3.264583
5570.000000    3.234019
5575.000000    3.175283
5580.000000    3.110244
5585.000000    3.046859
5590.000000    2.981963
5595.000000    2.913538
5600.000000    2.839098
5605.000000    2.754495
5610.000000    2.649913
5615.000000    2.563689
5620.000000    2.428358
5625.000000    2.274042
5630.000000    2.108671
5635.000000    1.959923
5640.000000    1.833984
5645.000000    1.706531
5650.000000    1.625244
5655.000000    1.543902
5660.000000    1.492244
5665.000000    1.428704
5670.000000    1.376360
5675.000000    1.374575
5680.000000    1.378272
5685.000000    1.372706
5690.000000    1.365305
5695.000000    1.399701
5700.000000    1.445977
5705.000000    1.479325
5710.000000    1.554127
5715.000000    1.608138
5720.000000    1.698795
5725.000000    1.791217
5730.000000    1.847577
5735.000000    1.922508
5740.000000    2.006896
5745.000000    2.072597
5750.000000    2.156816
5755.000000    2.266903
5760.000000    2.312408
5765.000000    2.348850
5770.000000    2.408885
5775.000000    2.486786
5780.000000    2.547465
5785.000000    2.587351
5790.000000    2.639460
5795.000000    2.738162
5800.000000    2.854179
5805.000000    2.955126
5810.000000    3.085188
5815.000000    3.211485
5820.000000    3.341905
5825.000000    3.426196
5830.000000    3.514847
5835.000000    3.610344
5840.000000    3.674980
5845.000000    3.690006
5850.000000    3.742406
5855.000000    3.780329
5860.000000    3.737221
5865.000000    3.701536
5870.000000    3.717779
5875.000000    3.691275
5880.000000    3.595082
5885.000000    3.495958
5890.000000    3.228478
5895.000000    2.783488
5900.000000    2.546930
5905.000000    2.701608
5910.000000    3.030349
5915.000000    3.361027
5920.000000    3.550211
5925.000000    3.562510
5930.000000    3.537677
5935.000000    3.558521
5940.000000    3.579365
5945.000000    3.557558
5950.000000    3.536941
5955.000000    3.487875
5960.000000    3.438474
5965.000000    3.403609
5970.000000    3.344234
5975.000000    3.282815
5980.000000    3.216652
5985.000000    3.171397
5990.000000    3.123944
5995.000000    3.093705
6000.000000    3.040118
6005.000000    2.980814
6010.000000    2.962628
6015.000000    2.941339
6020.000000    2.912437
6025.000000    2.890305
6030.000000    2.868861
6035.000000    2.869274
6040.000000    2.882787
6045.000000    2.882368
6050.000000    2.888300
6055.000000    2.882283
6060.000000    2.856688
6065.000000    2.834823
6070.000000    2.806494
6075.000000    2.783029
6080.000000    2.760932
6085.000000    2.732659
6090.000000    2.705269
6095.000000    2.682889
6100.000000    2.676604
6105.000000    2.677050
6110.000000    2.658606
6115.000000    2.662143
6120.000000    2.676973
6125.000000    2.702208
6130.000000    2.724097
6135.000000    2.744017
6140.000000    2.784256
6145.000000    2.835984
6150.000000    2.860976
6155.000000    2.887323
6160.000000    2.897802
6165.000000    2.881242
6170.000000    2.867414
6175.000000    2.849699
6180.000000    2.805550
6185.000000    2.742270
6190.000000    2.666288
6195.000000    2.604153
6200.000000    2.526501
6205.000000    2.448345
6210.000000    2.362780
6215.000000    2.290238
6220.000000    2.248599
6225.000000    2.228223
6230.000000    2.185457
6235.000000    2.152284
6240.000000    2.172862
6245.000000    2.167980
6250.000000    2.161169
6255.000000    2.104697
6260.000000    2.130375
6265.000000    2.093376
6270.000000    2.101819
6275.000000    2.028943
6280.000000    2.106560
6285.000000    2.139746
6290.000000    2.110023
6295.000000    2.121139
6300.000000    2.150217
6305.000000    2.183352
6310.000000    2.206606
6315.000000    2.217815
6320.000000    2.271595
6325.000000    2.294435
6330.000000    2.318715
6335.000000    2.399742
6340.000000    2.488484
6345.000000    2.496130
6350.000000    2.556511
6355.000000    2.591196
6360.000000    2.618511
6365.000000    2.673444
6370.000000    2.764292
6375.000000    2.824013
6380.000000    2.839564
6385.000000    2.880710
6390.000000    2.927960
6395.000000    2.944041
6400.000000    2.943458
6405.000000    2.941501
6410.000000    2.940506
6415.000000    2.907253
6420.000000    2.899920
6425.000000    2.899270
6430.000000    2.869304
6435.000000    2.858962
6440.000000    2.844706
6445.000000    2.820181
6450.000000    2.793489
6455.000000    2.753625
6460.000000    2.728490
6465.000000    2.745946
6470.000000    2.756265
6475.000000    2.766237
6480.000000    2.809882
6485.000000    2.848174
6490.000000    2.909548
6495.000000    2.938492
6500.000000    2.923479
6505.000000    2.933535
6510.000000    2.991298
6515.000000    3.055566
6520.000000    3.084493
6525.000000    3.110275
6530.000000    3.148813
6535.000000    3.197181
6540.000000    3.228844
6545.000000    3.266334
6550.000000    3.328336
6555.000000    3.370498
6560.000000    3.454108
6565.000000    3.795074
6570.000000    4.191836
6575.000000    4.152980
6580.000000    3.738782
6585.000000    3.509733
6590.000000    3.591177
6595.000000    3.627987
6600.000000    3.536830
6605.000000    3.485591
6610.000000    3.520690
6615.000000    3.562741
6620.000000    3.584410
6625.000000    3.590658
6630.000000    3.613554
6635.000000    3.639878
6640.000000    3.661788
6645.000000    3.692379
6650.000000    3.705992
6655.000000    3.717163
6660.000000    3.694791
6665.000000    3.669633
6670.000000    3.638886
6675.000000    3.609723
6680.000000    3.580757
6685.000000    3.571300
6690.000000    3.559816
6695.000000    3.527023
6700.000000    3.496319
6705.000000    3.487675
6710.000000    3.459572
6715.000000    3.447225
6720.000000    3.436674
6725.000000    3.414141
6730.000000    3.375753
6735.000000    3.352029
6740.000000    3.356285
6745.000000    3.324108
6750.000000    3.236014
6755.000000    3.179614
6760.000000    3.157337
6765.000000    3.129606
6770.000000    3.089453
6775.000000    3.030930
6780.000000    2.981804
6785.000000    2.937066
6790.000000    2.862811
6795.000000    2.818325
6800.000000    2.780308
6805.000000    2.743442
6810.000000    2.711694
6815.000000    2.663191
6820.000000    2.601824
6825.000000    2.578453
6830.000000    2.580689
6835.000000    2.544123
6840.000000    2.523695
6845.000000    2.476080
6850.000000    2.449969
6855.000000    2.576480
6860.000000    2.624410
6865.000000    2.534372
6870.000000    2.581496
6875.000000    2.668923
6880.000000    2.680877
6885.000000    2.705422
6890.000000    2.748739
6895.000000    2.707097
6900.000000    2.784806
6905.000000    2.828113
6910.000000    2.774373
6915.000000    2.768342
6920.000000    2.755261
6925.000000    2.794407
6930.000000    2.912832
6935.000000    2.906110
6940.000000    2.895634
6945.000000    2.992734
6950.000000    2.957580
6955.000000    2.943663
6960.000000    2.974576
6965.000000    3.022969
6970.000000    3.029485
6975.000000    3.035476
6980.000000    3.046754
6985.000000    3.114567
6990.000000    3.135263
6995.000000    3.086908
7000.000000    3.100636
7005.000000    3.200778
7010.000000    3.216055
7015.000000    3.214079
7020.000000    3.180345
7025.000000    3.156332
7030.000000    3.187481
7035.000000    3.193522
7040.000000    3.177271
7045.000000    3.115961
7050.000000    3.122229
7055.000000    3.157919
7060.000000    3.070289
7065.000000    2.961080
7070.000000    2.999695
7075.000000    3.008323
7080.000000    2.962782
7085.000000    2.953186
7090.000000    2.931297
7095.000000    2.929285
7100.000000    2.902164
7105.000000    2.882311
7110.000000    2.896027
7115.000000    2.874798
7120.000000    2.875244
7125.000000    2.846286
7130.000000    2.822008
7135.000000    2.817295
7140.000000    2.799358
7145.000000    2.841934
7150.000000    2.840311
7155.000000    2.788238
7160.000000    2.767784
7165.000000    2.737930
7170.000000    2.811360
7175.000000    2.840889
7180.000000    2.868380
7185.000000    2.922934
7190.000000    2.887646
7195.000000    2.818346
7200.000000    2.884383
7205.000000    3.023361
7210.000000    3.076678
7215.000000    3.153059
7220.000000    3.200798
7225.000000    3.084184
7230.000000    3.089622
7235.000000    3.137065
7240.000000    3.053287
7245.000000    2.995357
7250.000000    3.118017
7255.000000    3.135682
7260.000000    3.124086
7265.000000    3.066814
7270.000000    2.934859
7275.000000    2.930474
7280.000000    2.981749
7285.000000    2.965909
7290.000000    2.919547
7295.000000    2.948831
7300.000000    2.898790
7305.000000    2.869441
7310.000000    2.870287
7315.000000    2.904111
7320.000000    2.894867
7325.000000    2.866927
7330.000000    2.844944
7335.000000    2.842922
7340.000000    2.867326
7345.000000    2.856655
7350.000000    2.853642
7355.000000    2.864490
7360.000000    2.891297
7365.000000    2.905551
7370.000000    2.996740
7375.000000    2.979749
7380.000000    3.002446
7385.000000    2.998450
7390.000000    2.999524
7395.000000    3.087666
7400.000000    3.115458
7405.000000    3.109919
7410.000000    3.108298
7415.000000    3.116176
7420.000000    3.136107
7425.000000    3.166821
7430.000000    3.145209
7435.000000    3.152214
7440.000000    3.173996
7445.000000    3.175227
7450.000000    3.181373
7455.000000    3.175920
7460.000000    3.130185
7465.000000    3.111446
7470.000000    3.102125
7475.000000    3.137353
7480.000000    3.155089
7485.000000    3.095548
7490.000000    3.036404
7495.000000    2.983214
7500.000000    2.902691
7505.000000    2.836567
7510.000000    2.819828
7515.000000    2.773787
7520.000000    2.732200
7525.000000    2.722373
7530.000000    2.684633
7535.000000    2.621986
7540.000000    2.555296
7545.000000    2.496498
7550.000000    2.450537
7555.000000    2.447500
7560.000000    2.478396
7565.000000    2.493113
7570.000000    2.371927
7575.000000    2.253075
7580.000000    2.334155
7585.000000    2.403078
7590.000000    2.222390
7595.000000    2.440005
7600.000000    2.301070
7605.000000    2.289426
7610.000000    2.376244
7615.000000    2.518157
7620.000000    2.447377
7625.000000    2.486402
7630.000000    2.589468
7635.000000    2.554940
7640.000000    2.516304
7645.000000    2.649335
7650.000000    2.582567
7655.000000    2.569633
7660.000000    2.623793
7665.000000    2.687152
7670.000000    2.712698
7675.000000    2.680661
7680.000000    2.760815
7685.000000    2.723356
7690.000000    2.738495
7695.000000    2.765719
7700.000000    2.770762
7705.000000    2.850837
7710.000000    2.832641
7715.000000    2.829660
7720.000000    2.890667
7725.000000    2.895362
7730.000000    2.948700
7735.000000    2.955391
7740.000000    2.929725
7745.000000    2.893698
7750.000000    2.882240
7755.000000    2.905651
7760.000000    2.921547
7765.000000    2.924749
7770.000000    2.911217
7775.000000    2.921962
7780.000000    2.883536
7785.000000    2.876005
7790.000000    2.894748
7795.000000    2.897300
7800.000000    2.891563
7805.000000    2.896747
7810.000000    2.908190
7815.000000    2.935878
7820.000000    3.000843
7825.000000    3.085758
7830.000000    3.133454
7835.000000    3.086374
7840.000000    3.075555
7845.000000    3.112062
7850.000000    3.170869
7855.000000    3.132455
7860.000000    3.077398
7865.000000    3.032233
7870.000000    2.981519
7875.000000    2.926377
7880.000000    2.896915
7885.000000    2.891255
7890.000000    2.969445
7895.000000    2.923131
7900.000000    2.885468
7905.000000    2.964718
7910.000000    2.894324
7915.000000    2.853217
7920.000000    2.850060
7925.000000    2.800129
7930.000000    2.734440
7935.000000    2.685364
7940.000000    2.668923
7945.000000    2.719447
7950.000000    2.699478
7955.000000    2.712202
7960.000000    2.680528
7965.000000    2.667329
7970.000000    2.613702
7975.000000    2.577946
7980.000000    2.517683
7985.000000    2.556044
7990.000000    2.595396
7995.000000    2.563323
8000.000000    2.569061
8005.000000    2.536775
8010.000000    2.418833
8015.000000    2.433118
8020.000000    2.474260
8025.000000    2.415947
8030.000000    2.426121
8035.000000    2.358112
8040.000000    2.330739
8045.000000    2.288454
8050.000000    2.272847
8055.000000    2.256552
8060.000000    2.226091
8065.000000    2.258310
8070.000000    2.236932
8075.000000    2.211882
8080.000000    2.171352
8085.000000    2.173346
8090.000000    2.121462
8095.000000    2.079230
8100.000000    2.058887
8105.000000    2.114082
8110.000000    2.119535
8115.000000    2.189513
8120.000000    2.173933
8125.000000    2.103768
8130.000000    2.117046
8135.000000    2.007409
8140.000000    1.939841
8145.000000    1.895568
8150.000000    1.871758
8155.000000    1.733284
8160.000000    1.724866
8165.000000    1.672936
8170.000000    1.619178
8175.000000    1.526522
8180.000000    1.481575
8185.000000    1.304518
8190.000000    1.156964
8195.000000    1.128897
8200.000000    0.992645
8205.000000    0.910895
8210.000000    0.954892
8215.000000    0.912775
8220.000000    0.821832
8225.000000    0.874912
8230.000000    0.858703
8235.000000    0.795890
8240.000000    0.802754
8245.000000    0.768857
8250.000000    0.725762
8255.000000    0.741040
8260.000000    0.727484
8265.000000    0.766552
8270.000000    0.845639
8275.000000    0.855254
8280.000000    0.868836
8285.000000    0.866750
8290.000000    0.822794
8295.000000    0.841363
8300.000000    0.898221
8305.000000    0.881925
8310.000000    0.897814
8315.000000    0.935685
8320.000000    0.990111
8325.000000    1.022079
8330.000000    0.978340
8335.000000    0.938993
8340.000000    0.941211
8345.000000    0.938372
8350.000000    0.932621
8355.000000    0.963413
8360.000000    1.023923
8365.000000    1.023764
8370.000000    1.010086
8375.000000    1.016306
8380.000000    1.021304
8385.000000    1.040817
8390.000000    1.055138
8395.000000    1.068184
8400.000000    1.120363
8405.000000    1.213606
8410.000000    1.289178
8415.000000    1.301163
8420.000000    1.298213
8425.000000    1.342340
8430.000000    1.420633
8435.000000    1.438121
8440.000000    1.439010
8445.000000    1.493927
8450.000000    1.571056
8455.000000    1.643168
8460.000000    1.690479
8465.000000    1.776163
8470.000000    1.860389
8475.000000    1.869130
8480.000000    1.896357
8485.000000    1.948480
8490.000000    1.993139
8495.000000    2.027251
8500.000000    2.082868
8505.000000    2.175099
8510.000000    2.273965
8515.000000    2.409120
8520.000000    2.520353
8525.000000    2.563620
8530.000000    2.588729
8535.000000    2.600733
8540.000000    2.620329
8545.000000    2.672342
8550.000000    2.749748
8555.000000    2.839026
8560.000000    2.925384
8565.000000    3.029220
8570.000000    3.177029
8575.000000    3.253089
8580.000000    3.236380
8585.000000    3.217141
8590.000000    3.224598
8595.000000    3.221899
8600.000000    3.257092
8605.000000    3.335528
8610.000000    3.404515
8615.000000    3.466783
8620.000000    3.479415
8625.000000    3.504559
8630.000000    3.569382
8635.000000    3.556458
8640.000000    3.490007
8645.000000    3.462315
8650.000000    3.463351
8655.000000    3.495070
8660.000000    3.501224
8665.000000    3.462011
8670.000000    3.434511
8675.000000    3.444458
8680.000000    3.458929
8685.000000    3.496433
8690.000000    3.515857
8695.000000    3.481793
8700.000000    3.434917
8705.000000    3.388368
8710.000000    3.318799
8715.000000    3.223956
8720.000000    3.129882
8725.000000    3.103650
8730.000000    3.065183
8735.000000    3.052282
8740.000000    3.073009
8745.000000    3.123289
8750.000000    3.199678
8755.000000    3.193996
8760.000000    3.053037
8765.000000    2.910741
8770.000000    2.825320
8775.000000    2.781151
8780.000000    2.936517
8785.000000    3.128722
8790.000000    2.992333
8795.000000    2.908018
8800.000000    2.974175
8805.000000    2.998360
8810.000000    2.950917
8815.000000    2.792710
8820.000000    2.715365
8825.000000    2.867076
8830.000000    2.899114
8835.000000    2.771159
8840.000000    2.536262
8845.000000    2.479091
8850.000000    2.577693
8855.000000    2.626036
8860.000000    2.746278
8865.000000    2.706801
8870.000000    2.527974
8875.000000    2.437504
8880.000000    2.464569
8885.000000    2.529249
8890.000000    2.533169
8895.000000    2.399312
8900.000000    2.392491
8905.000000    2.502759
8910.000000    2.363677
8915.000000    2.194404
8920.000000    2.087191
8925.000000    2.044420
8930.000000    2.013178
8935.000000    1.983435
8940.000000    2.113792
8945.000000    2.041305
8950.000000    1.953238
8955.000000    1.898714
8960.000000    1.721481
8965.000000    1.733016
8970.000000    1.735524
8975.000000    1.620138
8980.000000    1.547845
8985.000000    1.487088
8990.000000    1.492899
8995.000000    1.532995
9000.000000    1.492206
9005.000000    1.450176
9010.000000    1.509945
9015.000000    1.498832
9020.000000    1.449452
9025.000000    1.439148
9030.000000    1.417320
9035.000000    1.381950
9040.000000    1.370400
9045.000000    1.340342
9050.000000    1.308191
9055.000000    1.284188
9060.000000    1.291209
9065.000000    1.310814
9070.000000    1.367396
9075.000000    1.413179
9080.000000    1.376004
9085.000000    1.355775
9090.000000    1.382687
9095.000000    1.383991
9100.000000    1.430743
9105.000000    1.481170
9110.000000    1.547553
9115.000000    1.641499
9120.000000    1.675511
9125.000000    1.637491
9130.000000    1.527317
9135.000000    1.525483
9140.000000    1.585732
9145.000000    1.635022
9150.000000    1.601616
9155.000000    1.586764
9160.000000    1.657132
9165.000000    1.757611
9170.000000    1.844049
9175.000000    1.910012
9180.000000    1.962945
9185.000000    1.984102
9190.000000    2.026664
9195.000000    1.964975
9200.000000    1.930332
9205.000000    1.923631
9210.000000    1.880154
9215.000000    1.843745
9220.000000    1.847913
9225.000000    1.907452
9230.000000    1.963132
9235.000000    1.968888
9240.000000    1.990916
9245.000000    1.959376
9250.000000    1.881841
9255.000000    1.782977
9260.000000    1.699860
9265.000000    1.616124
9270.000000    1.555871
9275.000000    1.491928
9280.000000    1.445575
9285.000000    1.420862
9290.000000    1.428555
9295.000000    1.431040
9300.000000    1.538043
9305.000000    1.621695
9310.000000    1.481587
9315.000000    1.309294
9320.000000    1.088143
9325.000000    1.040500
9330.000000    1.239752
9335.000000    1.647435
9340.000000    1.659455
9345.000000    1.494015
9350.000000    1.684752
9355.000000    1.688519
9360.000000    1.540251
9365.000000    1.518509
9370.000000    1.490048
9375.000000    1.531497
9380.000000    1.512125
9385.000000    1.515020
9390.000000    1.559157
9395.000000    1.623674
9400.000000    1.552026
9405.000000    1.426644
9410.000000    1.411122
9415.000000    1.359744
9420.000000    1.200669
9425.000000    1.187049
9430.000000    1.242459
9435.000000    1.209609
9440.000000    1.193338
9445.000000    1.274020
9450.000000    1.361367
9455.000000    1.359843
9460.000000    1.320416
9465.000000    1.310207
9470.000000    1.223214
9475.000000    1.047510
9480.000000    1.069900
9485.000000    1.225899
9490.000000    1.243104
9495.000000    1.117706
9500.000000    1.050380
9505.000000    1.098090
9510.000000    1.197750
9515.000000    1.256716
9520.000000    1.233854
9525.000000    1.201877
9530.000000    1.205533
9535.000000    1.242060
9540.000000    1.276369
9545.000000    1.251009
9550.000000    1.271860
9555.000000    1.276271
9560.000000    1.220715
9565.000000    1.154982
9570.000000    1.119477
9575.000000    1.156989
9580.000000    1.188881
9585.000000    1.215323
9590.000000    1.229565
9595.000000    1.181321
9600.000000    1.170486
9605.000000    1.243468
9610.000000    1.268608
9615.000000    1.272726
9620.000000    1.278194
9625.000000    1.296541
9630.000000    1.330193
9635.000000    1.324466
9640.000000    1.292222
9645.000000    1.305927
9650.000000    1.392401
9655.000000    1.463403
9660.000000    1.495930
9665.000000    1.501572
9670.000000    1.486824
9675.000000    1.495005
9680.000000    1.466443
9685.000000    1.370423
9690.000000    1.332142
9695.000000    1.370765
9700.000000    1.378940
9705.000000    1.373916
9710.000000    1.332618
9715.000000    1.315376
9720.000000    1.314333
9725.000000    1.361553
9730.000000    1.410615
9735.000000    1.444700
9740.000000    1.474203
9745.000000    1.482612
9750.000000    1.503218
9755.000000    1.506211
9760.000000    1.511160
9765.000000    1.515936
9770.000000    1.497049
9775.000000    1.531937
9780.000000    1.549856
9785.000000    1.558365
9790.000000    1.623526
9795.000000    1.658157
9800.000000    1.653137
9805.000000    1.681011
9810.000000    1.728878
9815.000000    1.750949
9820.000000    1.760185
9825.000000    1.794011
9830.000000    1.822922
9835.000000    1.833316
9840.000000    1.843711
9845.000000    1.854105
9850.000000    1.864499
9855.000000    1.874894
9860.000000    1.885288
9865.000000    1.895683
9870.000000    1.933647
9875.000000    2.006062
9880.000000    2.054254
9885.000000    2.071567
9890.000000    2.120696
9895.000000    2.068504
9900.000000    2.003154
9905.000000    1.963938
9910.000000    1.935016
9915.000000    1.964500
9920.000000    1.974837
9925.000000    1.986455
9930.000000    2.006074
9935.000000    1.996279
9940.000000    1.836436
9945.000000    1.629790
9950.000000    1.511114
