# File created by shivutils (I.Shivvers)
# Blotched regions marked with a #.
# wl(A)   flm    er(optional)
3460.00   0.89330643
3462.00   1.26828265
3464.00   1.01479554
3466.00   0.77604765
3468.00   0.94821960
3470.00   0.80219966
3472.00   0.98458999
3474.00   0.78695798
3476.00   0.89220017
3478.00   0.89479500
3480.00   1.02616858
3482.00   0.90874612
3484.00   0.81670296
3486.00   1.07390237
3488.00   1.02610207
3490.00   1.01451278
3492.00   1.09858811
3494.00   1.03500533
3496.00   1.13378537
3498.00   1.05314291
3500.00   1.05441189
3502.00   0.94050151
3504.00   1.01498985
3506.00   0.96935755
3508.00   0.99508691
3510.00   0.90978861
3512.00   1.16719711
3514.00   0.98435146
3516.00   1.00106907
3518.00   1.00753713
3520.00   1.02647197
3522.00   1.04564846
3524.00   0.91762888
3526.00   1.03788614
3528.00   0.91730583
3530.00   0.85891587
3532.00   0.98536235
3534.00   1.01052487
3536.00   0.89481026
3538.00   0.86135793
3540.00   0.95704746
3542.00   0.87500858
3544.00   0.87477028
3546.00   1.07656705
3548.00   1.04091787
3550.00   0.87867641
3552.00   1.06781876
3554.00   0.97901851
3556.00   1.07177341
3558.00   0.91201812
3560.00   0.86850774
3562.00   0.93746972
3564.00   0.95731324
3566.00   0.84415400
3568.00   0.99324745
3570.00   1.06075537
3572.00   1.00473416
3574.00   0.92778343
3576.00   1.03185296
3578.00   0.98508435
3580.00   1.02066648
3582.00   0.91553497
3584.00   0.91562271
3586.00   0.90754771
3588.00   0.95191950
3590.00   0.93935180
3592.00   0.99743617
3594.00   0.84102339
3596.00   1.10901034
3598.00   1.05566144
3600.00   1.03506470
3602.00   1.04828691
3604.00   1.02048254
3606.00   1.11279202
3608.00   1.06476307
3610.00   1.06192780
3612.00   1.04113770
3614.00   1.11562359
3616.00   1.15544271
3618.00   1.04235280
3620.00   1.12294376
3622.00   1.07581580
3624.00   0.96182257
3626.00   0.98720390
3628.00   1.16423321
3630.00   1.15140057
3632.00   1.00821185
3634.00   1.01188958
3636.00   1.06289697
3638.00   1.14277077
3640.00   1.08750689
3642.00   1.05730617
3644.00   1.09239614
3646.00   1.16594756
3648.00   1.01252604
3650.00   0.99300784
3652.00   1.01347864
3654.00   1.18384743
3656.00   1.08123493
3658.00   1.01018441
3660.00   1.08141327
3662.00   0.94290543
3664.00   0.96655375
3666.00   0.94207346
3668.00   1.05155146
3670.00   1.04179978
3672.00   1.01852715
3674.00   1.07528257
3676.00   0.98280954
3678.00   1.01477134
3680.00   0.93265176
3682.00   1.04058099
3684.00   1.06880176
3686.00   0.95994854
3688.00   1.12565732
3690.00   0.90589499
3692.00   0.96360052
3694.00   1.05062628
3696.00   1.00762272
3698.00   0.87321270
3700.00   0.98468095
3702.00   1.09860539
3704.00   0.96149385
3706.00   0.99338979
3708.00   0.92516679
3710.00   0.99638128
3712.00   1.04699850
3714.00   1.08254087
3716.00   1.02504241
3718.00   0.94563735
3720.00   1.15869462
3722.00   0.96387100
3724.00   0.97292280
3726.00   1.14707363
3728.00   1.06603682
3730.00   1.15222466
3732.00   1.22572327
3734.00   1.12981844
3736.00   1.08896732
3738.00   1.18923640
3740.00   1.14855492
3742.00   1.20383406
3744.00   1.17228961
3746.00   1.17179573
3748.00   1.26515675
3750.00   1.21965301
3752.00   1.30310535
3754.00   1.25226367
3756.00   1.14918292
3758.00   1.12209904
3760.00   1.20159936
3762.00   1.09256315
3764.00   1.17347419
3766.00   1.09709227
3768.00   1.13648057
3770.00   1.19120324
3772.00   1.06610107
3774.00   1.00111008
3776.00   1.02913964
3778.00   1.01892090
3780.00   0.99501801
3782.00   1.08563650
3784.00   1.01609218
3786.00   1.07530022
3788.00   1.04640865
3790.00   1.10303080
3792.00   0.99162310
3794.00   0.96169007
3796.00   1.06473339
3798.00   0.97276676
3800.00   0.95275331
3802.00   1.07457423
3804.00   0.94786191
3806.00   0.98643696
3808.00   1.03889251
3810.00   0.91936845
3812.00   0.89839262
3814.00   0.95279151
3816.00   0.81104887
3818.00   0.88225245
3820.00   0.91024643
3822.00   0.89675629
3824.00   0.93183774
3826.00   0.93541843
3828.00   1.11513150
3830.00   1.03335679
3832.00   1.06750965
3834.00   1.02293992
3836.00   0.98039567
3838.00   1.09998429
3840.00   1.01913929
3842.00   0.98431307
3844.00   1.08128047
3846.00   1.04384685
3848.00   1.07191086
3850.00   1.13303196
3852.00   1.14232981
3854.00   1.14867115
3856.00   1.15950429
3858.00   1.12112379
3860.00   1.11935234
3862.00   1.15847254
3864.00   1.06715429
3866.00   1.16515696
3868.00   1.16201794
3870.00   1.13316607
3872.00   1.18602228
3874.00   1.09593713
3876.00   1.16215551
3878.00   1.20101047
3880.00   1.08823526
3882.00   1.13200867
3884.00   1.07510960
3886.00   1.07975304
3888.00   0.94253057
3890.00   1.01015460
3892.00   0.96193129
3894.00   0.98155773
3896.00   1.04659307
3898.00   1.09747136
3900.00   1.09348190
3902.00   1.06911635
3904.00   1.03641450
3906.00   1.09006298
3908.00   1.14783382
3910.00   1.08481908
3912.00   1.11251795
3914.00   1.13167441
3916.00   1.04692531
3918.00   1.01170075
3920.00   1.01930153
3922.00   1.03922629
3924.00   1.09943449
3926.00   1.05956674
3928.00   0.99545848
3930.00   0.92382044
3932.00   0.90878665
3934.00   0.83698666
3936.00   0.99438620
3938.00   1.03705502
3940.00   1.13484073
3942.00   1.18049157
3944.00   1.08252752
3946.00   1.20587826
3948.00   1.08637583
3950.00   1.08514524
3952.00   1.00234175
3954.00   1.18927050
3956.00   1.15173090
3958.00   1.13802552
3960.00   1.12580562
3962.00   1.09700274
3964.00   1.06162453
3966.00   1.02820182
3968.00   0.94687003
3970.00   1.02211249
3972.00   1.09250963
3974.00   1.09750926
3976.00   1.04893923
3978.00   1.09772408
3980.00   1.09529436
3982.00   1.00831902
3984.00   1.07320464
3986.00   1.12041736
3988.00   1.09726965
3990.00   1.14087570
3992.00   1.11483288
3994.00   1.15563548
3996.00   1.18186986
3998.00   1.17681646
4000.00   1.13551652
4002.00   1.15852761
4004.00   1.18138433
4006.00   1.13560092
4008.00   1.13445175
4010.00   1.19229949
4012.00   1.13953817
4014.00   1.16993368
4016.00   1.10344589
4018.00   1.25116229
4020.00   1.14406466
4022.00   1.04030132
4024.00   1.15435529
4026.00   1.05578554
4028.00   1.26182711
4030.00   1.18489993
4032.00   1.22424793
4034.00   1.22467232
4036.00   1.22499621
4038.00   1.24588275
4040.00   1.23712146
4042.00   1.36529827
4044.00   1.28171182
4046.00   1.35726774
4048.00   1.22326982
4050.00   1.25432730
4052.00   1.26982689
4054.00   1.28248262
4056.00   1.20917952
4058.00   1.25693941
4060.00   1.20044410
4062.00   1.18146360
4064.00   1.18664873
4066.00   1.17136347
4068.00   1.11739683
4070.00   1.18053532
4072.00   1.18582654
4074.00   1.16846061
4076.00   1.11935568
4078.00   0.99186724
4080.00   1.17955315
4082.00   1.04739428
4084.00   1.02006710
4086.00   1.07588327
4088.00   1.10428953
4090.00   1.17011249
4092.00   1.08790827
4094.00   1.05053854
4096.00   1.06541622
4098.00   1.09653652
4100.00   1.08406770
4102.00   1.13427305
4104.00   1.07096279
4106.00   1.14249432
4108.00   1.10169172
4110.00   1.11542618
4112.00   1.09225881
4114.00   1.08716393
4116.00   1.15325272
4118.00   1.10484087
4120.00   1.06779861
4122.00   1.14965391
4124.00   1.11787236
4126.00   1.16217482
4128.00   1.13148725
4130.00   1.16710544
4132.00   1.15000570
4134.00   1.19718540
4136.00   1.17532229
4138.00   1.20095265
4140.00   1.21598160
4142.00   1.14033341
4144.00   1.24001575
4146.00   1.21989584
4148.00   1.25427318
4150.00   1.25508678
4152.00   1.23848093
4154.00   1.24748969
4156.00   1.23308074
4158.00   1.24833119
4160.00   1.38863397
4162.00   1.26947510
4164.00   1.21377707
4166.00   1.24928117
4168.00   1.27917337
4170.00   1.27764618
4172.00   1.33783340
4174.00   1.28019559
4176.00   1.23952651
4178.00   1.24089360
4180.00   1.26159191
4182.00   1.20343447
4184.00   1.17507923
4186.00   1.23844242
4188.00   1.09777880
4190.00   1.21548486
4192.00   1.15895963
4194.00   1.26571572
4196.00   1.22235107
4198.00   1.16953969
4200.00   1.26242089
4202.00   1.19463372
4204.00   1.17817485
4206.00   1.16590691
4208.00   1.17302728
4210.00   1.23436034
4212.00   1.21597517
4214.00   1.21314752
4216.00   1.20832813
4218.00   1.21824193
4220.00   1.17654729
4222.00   1.18799376
4224.00   1.19054008
4226.00   1.13783193
4228.00   1.18506753
4230.00   1.14117694
4232.00   1.12310398
4234.00   1.25362659
4236.00   1.19558477
4238.00   1.21980238
4240.00   1.14683855
4242.00   1.19697380
4244.00   1.14018118
4246.00   1.16463757
4248.00   1.23412764
4250.00   1.13005793
4252.00   1.18538046
4254.00   1.15434635
4256.00   1.19523215
4258.00   1.17578840
4260.00   1.22434831
4262.00   1.22216749
4264.00   1.18988919
4266.00   1.20835447
4268.00   1.22716975
4270.00   1.18022990
4272.00   1.17039967
4274.00   1.23637021
4276.00   1.15867245
4278.00   1.27885735
4280.00   1.28839540
4282.00   1.24136639
4284.00   1.13632691
4286.00   1.23486912
4288.00   1.23341095
4290.00   1.25318480
4292.00   1.16801548
4294.00   1.20820069
4296.00   1.19601214
4298.00   1.19346595
4300.00   1.25005567
4302.00   1.27267575
4304.00   1.29735780
4306.00   1.14147735
4308.00   1.15293050
4310.00   1.19457197
4312.00   1.22179675
4314.00   1.23226964
4316.00   1.26066637
4318.00   1.18542337
4320.00   1.25943482
4322.00   1.15090466
4324.00   1.20906734
4326.00   1.12675881
4328.00   1.25254464
4330.00   1.18303990
4332.00   1.18492627
4334.00   1.16790402
4336.00   1.16316509
4338.00   1.16866016
4340.00   1.14458883
4342.00   1.16814125
4344.00   1.16279733
4346.00   1.10851347
4348.00   1.13999701
4350.00   1.18481958
4352.00   1.20502830
#4354.00   1.21677566
#4356.00   1.24473453
#4358.00   1.28580999
#4360.00   0.90863889
#4362.00   1.05847025
#4364.00   1.11483598
#4366.00   1.13381708
#4368.00   1.23143411
4370.00   1.16664577
4372.00   1.18866670
4374.00   1.23385596
4376.00   1.17085719
4378.00   1.22578263
4380.00   1.15953195
4382.00   1.15369213
4384.00   1.19169664
4386.00   1.18878746
4388.00   1.15204799
4390.00   1.14078128
4392.00   1.22896683
4394.00   1.23687255
4396.00   1.16681111
4398.00   1.16994023
4400.00   1.19793749
4402.00   1.17323887
4404.00   1.17027187
4406.00   1.17055392
4408.00   1.16437292
4410.00   1.17676270
4412.00   1.11202002
4414.00   1.10217023
4416.00   1.13355243
4418.00   1.13282204
4420.00   1.09729874
4422.00   1.03497601
4424.00   1.01174498
4426.00   1.03103805
4428.00   1.06846285
4430.00   1.02060187
4432.00   1.00031495
4434.00   1.04316998
4436.00   1.12359571
4438.00   1.04449916
4440.00   1.06357825
4442.00   1.03045273
4444.00   1.09619236
4446.00   1.11374187
4448.00   1.11368930
4450.00   1.07171619
4452.00   1.10120201
4454.00   1.18059433
4456.00   1.18301344
4458.00   1.10397446
4460.00   1.14480877
4462.00   1.14945686
4464.00   1.15190768
4466.00   1.15633380
4468.00   1.11093104
4470.00   1.14265180
4472.00   1.10417962
4474.00   1.10614181
4476.00   1.10008442
4478.00   1.14569938
4480.00   1.18818855
4482.00   1.17547834
4484.00   1.24793804
4486.00   1.26252687
4488.00   1.25045693
4490.00   1.25126719
4492.00   1.31179035
4494.00   1.28272164
4496.00   1.32336259
4498.00   1.28260815
4500.00   1.25453603
4502.00   1.27054298
4504.00   1.23452961
4506.00   1.23814678
4508.00   1.24819577
4510.00   1.21410728
4512.00   1.25248694
4514.00   1.30098474
4516.00   1.29264665
4518.00   1.24172556
4520.00   1.21435094
4522.00   1.24331760
4524.00   1.24892139
4526.00   1.24530864
4528.00   1.22111654
4530.00   1.27933371
4532.00   1.19201684
4534.00   1.26748574
4536.00   1.24469805
4538.00   1.23834634
4540.00   1.25529802
4542.00   1.30917263
4544.00   1.28195655
4546.00   1.30734503
4548.00   1.37535918
4550.00   1.35982692
4552.00   1.34266222
4554.00   1.39589524
4556.00   1.34534264
4558.00   1.34026384
4560.00   1.37149668
4562.00   1.35504878
4564.00   1.35882962
4566.00   1.34103346
4568.00   1.26428771
4570.00   1.34299612
4572.00   1.30399489
4574.00   1.33674991
4576.00   1.35065401
4578.00   1.24473703
4580.00   1.34213150
4582.00   1.34670317
4584.00   1.33422673
4586.00   1.33669043
4588.00   1.29115641
4590.00   1.34624338
4592.00   1.34675169
4594.00   1.35387218
4596.00   1.31435931
4598.00   1.29039252
4600.00   1.32424068
4602.00   1.33972347
4604.00   1.32944179
4606.00   1.28945696
4608.00   1.33926153
4610.00   1.34342778
4612.00   1.31236541
4614.00   1.33558607
4616.00   1.37038505
4618.00   1.36166775
4620.00   1.33053553
4622.00   1.34180641
4624.00   1.30539000
4626.00   1.37767720
4628.00   1.31956756
4630.00   1.37598503
4632.00   1.36908627
4634.00   1.39060080
4636.00   1.43829858
4638.00   1.40790248
4640.00   1.34893000
4642.00   1.34550238
4644.00   1.29075205
4646.00   1.33918822
4648.00   1.35831821
4650.00   1.32399094
4652.00   1.38354504
4654.00   1.34236407
4656.00   1.30143845
4658.00   1.31972039
4660.00   1.33403015
4662.00   1.29933643
4664.00   1.31628752
4666.00   1.35128415
4668.00   1.34069586
4670.00   1.25306535
4672.00   1.27845705
4674.00   1.37279367
4676.00   1.32913494
4678.00   1.35022140
4680.00   1.40032864
4682.00   1.30549967
4684.00   1.30845177
4686.00   1.36439002
4688.00   1.33602130
4690.00   1.30049574
4692.00   1.33155048
4694.00   1.26942968
4696.00   1.31599152
4698.00   1.33462691
4700.00   1.30971336
4702.00   1.35553765
4704.00   1.32853591
4706.00   1.31209195
4708.00   1.30696511
4710.00   1.31579685
4712.00   1.32235122
4714.00   1.27378786
4716.00   1.30126739
4718.00   1.30843949
4720.00   1.31275034
4722.00   1.27286935
4724.00   1.24098802
4726.00   1.34815776
4728.00   1.33397555
4730.00   1.26839864
4732.00   1.29422903
4734.00   1.33382726
4736.00   1.26032710
4738.00   1.28236580
4740.00   1.25282824
4742.00   1.30203736
4744.00   1.33867145
4746.00   1.27533054
4748.00   1.23346293
4750.00   1.25004137
4752.00   1.22059870
4754.00   1.27881622
4756.00   1.17927885
4758.00   1.17988002
4760.00   1.18950582
4762.00   1.19726872
4764.00   1.23019278
4766.00   1.20005918
4768.00   1.19522738
4770.00   1.15920627
4772.00   1.15677571
4774.00   1.13043380
4776.00   1.15731025
4778.00   1.13330185
4780.00   1.13460720
4782.00   1.17005062
4784.00   1.15056229
4786.00   1.15660989
4788.00   1.15907753
4790.00   1.15047026
4792.00   1.13043475
4794.00   1.16989398
4796.00   1.19032705
4798.00   1.16675639
4800.00   1.11380172
4802.00   1.21158171
4804.00   1.13301778
4806.00   1.14373291
4808.00   1.13286817
4810.00   1.17005646
4812.00   1.20778728
4814.00   1.16019046
4816.00   1.16628218
4818.00   1.19224787
4820.00   1.21826828
4822.00   1.18638778
4824.00   1.23368967
4826.00   1.17635906
4828.00   1.17957115
4830.00   1.22508669
4832.00   1.17774320
4834.00   1.20783830
4836.00   1.18671918
4838.00   1.17637575
4840.00   1.23195624
4842.00   1.17881155
4844.00   1.17079723
4846.00   1.13197923
4848.00   1.15899312
4850.00   1.20461631
4852.00   1.18280554
4854.00   1.14844072
4856.00   1.15113103
4858.00   1.17844427
4860.00   1.16562593
4862.00   1.10889494
4864.00   1.11190069
4866.00   1.11475968
4868.00   1.09781301
4870.00   1.16074896
4872.00   1.13559651
4874.00   1.12156463
4876.00   1.14460826
4878.00   1.17161191
4880.00   1.21856093
4882.00   1.19845700
4884.00   1.15530086
4886.00   1.14070773
4888.00   1.19494867
4890.00   1.24971509
4892.00   1.19062090
4894.00   1.18607926
4896.00   1.20413947
4898.00   1.25621021
4900.00   1.27469754
4902.00   1.22722304
4904.00   1.22717631
4906.00   1.25111985
4908.00   1.32119930
4910.00   1.26272273
4912.00   1.24548852
4914.00   1.25857437
4916.00   1.25554109
4918.00   1.28294516
4920.00   1.24938226
4922.00   1.26886976
4924.00   1.27528596
4926.00   1.25156307
4928.00   1.28988469
4930.00   1.25795197
4932.00   1.30448222
4934.00   1.26836169
4936.00   1.28462327
4938.00   1.33743107
4940.00   1.29302728
4942.00   1.30210662
4944.00   1.26385427
4946.00   1.31779528
4948.00   1.26294863
4950.00   1.28681457
4952.00   1.26307726
4954.00   1.23066664
4956.00   1.27385294
4958.00   1.18399692
4960.00   1.24248743
4962.00   1.18866229
4964.00   1.19624209
4966.00   1.27135682
4968.00   1.22932637
4970.00   1.21763420
4972.00   1.26052439
4974.00   1.23988557
4976.00   1.25283778
4978.00   1.24935436
4980.00   1.26351106
4982.00   1.23232949
4984.00   1.27026021
4986.00   1.31499672
4988.00   1.27829134
4990.00   1.31880414
4992.00   1.23352051
4994.00   1.32089782
4996.00   1.26692295
4998.00   1.31671894
5000.00   1.32573843
5002.00   1.37968564
5004.00   1.32214737
5006.00   1.37336361
5008.00   1.40123868
5010.00   1.41235232
5012.00   1.37387979
5014.00   1.32115090
5016.00   1.33707988
5018.00   1.33930266
5020.00   1.36797702
5022.00   1.42946422
5024.00   1.38504541
5026.00   1.39973330
5028.00   1.50533700
5030.00   1.43252492
5032.00   1.51848423
5034.00   1.46101105
5036.00   1.44529462
5038.00   1.44312716
5040.00   1.44661152
5042.00   1.45302272
5044.00   1.49032450
5046.00   1.46003914
5048.00   1.44238830
5050.00   1.48198509
5052.00   1.46227038
5054.00   1.39918387
5056.00   1.48600662
5058.00   1.51106358
5060.00   1.44206738
5062.00   1.46753478
5064.00   1.45451939
5066.00   1.48817313
5068.00   1.39979517
5070.00   1.34518337
5072.00   1.38245058
5074.00   1.38442397
5076.00   1.37528872
5078.00   1.34825146
5080.00   1.35286570
5082.00   1.32093132
5084.00   1.30091262
5086.00   1.32442081
5088.00   1.37667942
5090.00   1.28734851
5092.00   1.31763136
5094.00   1.29326999
5096.00   1.28200364
5098.00   1.29041576
5100.00   1.24225986
5102.00   1.23526084
5104.00   1.22058439
5106.00   1.19294226
5108.00   1.28327799
5110.00   1.20132434
5112.00   1.16351378
5114.00   1.18716109
5116.00   1.19487393
5118.00   1.21816123
5120.00   1.23163784
5122.00   1.30429673
5124.00   1.26144290
5126.00   1.23084283
5128.00   1.25863993
5130.00   1.22936642
5132.00   1.28471720
5134.00   1.18371749
5136.00   1.26211166
5138.00   1.28453290
5140.00   1.29383552
5142.00   1.29627895
5144.00   1.28658473
5146.00   1.28120053
5148.00   1.27854669
5150.00   1.29281175
5152.00   1.27044117
5154.00   1.31078005
5156.00   1.32718384
5158.00   1.32119739
5160.00   1.25826216
5162.00   1.28486621
5164.00   1.31450868
5166.00   1.33464956
5168.00   1.32016706
5170.00   1.30146384
5172.00   1.27292848
5174.00   1.28593612
5176.00   1.31370378
5178.00   1.30655909
5180.00   1.35073709
5182.00   1.31281185
5184.00   1.27319109
5186.00   1.29206944
5188.00   1.27535021
5190.00   1.34594607
5192.00   1.31169009
5194.00   1.29913402
5196.00   1.27086091
5198.00   1.27057278
5200.00   1.26961529
5202.00   1.28859103
5204.00   1.25577426
5206.00   1.29682648
5208.00   1.29080677
5210.00   1.27944517
5212.00   1.34355414
5214.00   1.26690388
5216.00   1.25180602
5218.00   1.31573510
5220.00   1.30959105
5222.00   1.33202338
5224.00   1.28455579
5226.00   1.30874062
5228.00   1.33644879
5230.00   1.31422830
5232.00   1.37779820
5234.00   1.31345534
5236.00   1.32083344
5238.00   1.31641579
5240.00   1.32560599
5242.00   1.26401794
5244.00   1.31722140
5246.00   1.26249206
5248.00   1.35294402
5250.00   1.28590584
5252.00   1.40677011
5254.00   1.33001280
5256.00   1.34122729
5258.00   1.34007502
5260.00   1.28971958
5262.00   1.29115272
5264.00   1.28997421
5266.00   1.30498457
5268.00   1.28892779
5270.00   1.32474577
5272.00   1.32456553
5274.00   1.37236130
5276.00   1.36575234
5278.00   1.32363582
5280.00   1.39995384
5282.00   1.37827456
5284.00   1.32297170
5286.00   1.32657886
5288.00   1.40626991
5290.00   1.34415352
5292.00   1.35175228
5294.00   1.35173285
5296.00   1.35799754
5298.00   1.39099216
5300.00   1.38158655
5302.00   1.32593632
5304.00   1.38259447
5306.00   1.36234784
5308.00   1.40790999
5310.00   1.42231941
5312.00   1.32889545
5314.00   1.35928166
5316.00   1.45909476
5318.00   1.42052162
5320.00   1.41909325
5322.00   1.39692855
5324.00   1.36182511
5326.00   1.36170805
5328.00   1.37616873
5330.00   1.36241102
5332.00   1.40083706
5334.00   1.33180487
5336.00   1.32271123
5338.00   1.32644928
5340.00   1.34231865
5342.00   1.32398486
5344.00   1.28810489
5346.00   1.34073222
5348.00   1.30575871
5350.00   1.29588521
5352.00   1.33481967
5354.00   1.32577670
5356.00   1.30155325
5358.00   1.30921996
5360.00   1.34809268
5362.00   1.31205034
5364.00   1.23933971
5366.00   1.30133152
5368.00   1.33474278
5370.00   1.31025600
5372.00   1.34349287
5374.00   1.31586778
5376.00   1.28044593
5378.00   1.28974247
5380.00   1.32270718
5382.00   1.29596233
5384.00   1.32673573
5386.00   1.34441519
5388.00   1.37380445
5390.00   1.35387349
5392.00   1.31147635
5394.00   1.28873885
5396.00   1.28396070
5398.00   1.25757802
5400.00   1.28510082
5402.00   1.31616831
5404.00   1.31560159
5406.00   1.32252133
5408.00   1.32774782
5410.00   1.29610550
5412.00   1.24800658
5414.00   1.26870787
5416.00   1.26381409
5418.00   1.32063842
5420.00   1.28254366
5422.00   1.31473708
5424.00   1.39412689
5426.00   1.27933502
5428.00   1.22803199
5430.00   1.27214479
5432.00   1.32438290
5434.00   1.36280644
5436.00   1.31232727
5438.00   1.29608035
5440.00   1.29218066
5442.00   1.23889279
5444.00   1.24046481
5446.00   1.33634937
5448.00   1.29629660
5450.00   1.27011919
5452.00   1.26941645
5454.00   1.28398597
5456.00   1.29680753
5458.00   1.31990170
5460.00   1.33086264
5462.00   1.30533338
5464.00   1.25387824
5466.00   1.23741400
5468.00   1.23885977
5470.00   1.24580979
5472.00   1.26826918
5474.00   1.28782415
5476.00   1.29759014
5478.00   1.30197287
5480.00   1.30063963
5482.00   1.29391384
5484.00   1.28107572
5486.00   1.25638759
5488.00   1.23657107
5490.00   1.22766471
5492.00   1.22041130
5494.00   1.19884741
5496.00   1.15623021
5498.00   1.15868866
5500.00   1.20871079
5502.00   1.23691547
5504.00   1.24337626
5506.00   1.23945189
5508.00   1.22589028
5510.00   1.19737816
5512.00   1.20355344
5514.00   1.25249434
5516.00   1.26683033
5518.00   1.24960148
5520.00   1.22737527
5522.00   1.21035278
5524.00   1.19343150
5526.00   1.19698942
5528.00   1.23135519
5530.00   1.23842490
5532.00   1.22717619
5534.00   1.21464133
5536.00   1.20202875
5538.00   1.19067347
5540.00   1.19600141
5542.00   1.21975744
5544.00   1.23185182
5546.00   1.24531388
5548.00   1.24888861
5550.00   1.23944640
5552.00   1.22300315
5554.00   1.20546079
5556.00   1.18086481
5558.00   1.17039502
5560.00   1.16862738
5562.00   1.17150819
5564.00   1.18426168
5566.00   1.19612563
5568.00   1.19803619
5570.00   1.19454980
5572.00   1.18168557
5574.00   1.14676881
5576.00   1.13496935
5578.00   1.14584816
5580.00   1.15620947
5582.00   1.15498960
5584.00   1.14926898
5586.00   1.14684772
5588.00   1.14401281
5590.00   1.14382625
5592.00   1.14793086
5594.00   1.14934754
5596.00   1.14503908
5598.00   1.13900983
5600.00   1.13822913
5602.00   1.14210725
5604.00   1.14105582
5606.00   1.13681984
5608.00   1.13297379
5610.00   1.13013327
5612.00   1.12669742
5614.00   1.12034726
5616.00   1.11065376
5618.00   1.10875607
5620.00   1.11451340
5622.00   1.11707473
5624.00   1.12000787
5626.00   1.11881483
5628.00   1.10675871
5630.00   1.08688259
5632.00   1.08471990
5634.00   1.10053647
5636.00   1.10457993
5638.00   1.10336256
5640.00   1.09873533
5642.00   1.08888698
5644.00   1.07634842
5646.00   1.07249892
5648.00   1.07443058
5650.00   1.07737207
5652.00   1.08731794
5654.00   1.09135640
5656.00   1.08468771
5658.00   1.07515943
5660.00   1.07383060
5662.00   1.07628250
5664.00   1.08223486
5666.00   1.10035121
5668.00   1.10481536
5670.00   1.09073782
5672.00   1.07370925
5674.00   1.06634712
5676.00   1.06217742
5678.00   1.06906271
5680.00   1.09886014
5682.00   1.10559130
5684.00   1.08989680
5686.00   1.07155204
5688.00   1.06107306
5690.00   1.05246651
5692.00   1.03950775
5694.00   1.01837504
5696.00   1.00916588
5698.00   1.01219356
5700.00   1.01192081
5702.00   1.00078905
5704.00   0.98730278
5706.00   0.98818690
5708.00   1.00352514
5710.00   1.00691295
5712.00   1.00131834
5714.00   1.00142789
5716.00   1.01131690
5718.00   1.02266848
5720.00   1.02608311
5722.00   1.02593088
5724.00   1.01954997
5726.00   0.99902296
5728.00   0.99129951
5730.00   0.99900025
5732.00   1.00829303
5734.00   1.00892246
5736.00   1.00555968
5738.00   1.00429046
5740.00   1.00503767
5742.00   1.00137269
5744.00   0.99247348
5746.00   0.98406005
5748.00   0.97750628
5750.00   0.97241998
5752.00   0.97433811
5754.00   0.98720896
5756.00   0.99067545
5758.00   0.98743474
5760.00   0.98668498
5762.00   0.99124080
5764.00   0.99747902
5766.00   1.00064504
5768.00   1.00195742
5770.00   1.00446391
5772.00   1.01344299
5774.00   1.01045835
5776.00   0.99088156
5778.00   0.96655649
5780.00   0.94720453
5782.00   0.92542547
5784.00   0.92736012
5786.00   0.95698148
5788.00   0.97507852
5790.00   0.98861378
5792.00   0.99620599
5794.00   0.99342817
5796.00   0.98252010
5798.00   0.97933137
5800.00   0.97993428
5802.00   0.97915834
5804.00   0.97629368
5806.00   0.97662550
5808.00   0.98162854
5810.00   0.99040270
5812.00   1.00397193
5814.00   1.02402890
5816.00   1.04276824
5818.00   1.06433761
5820.00   1.08361006
5822.00   1.09920704
5824.00   1.11345601
5826.00   1.12950099
5828.00   1.14734280
5830.00   1.15992486
5832.00   1.16871834
5834.00   1.17601287
5836.00   1.18008709
5838.00   1.18425131
5840.00   1.19157219
5842.00   1.20039511
5844.00   1.21365118
5846.00   1.23198843
5848.00   1.25021601
5850.00   1.27101457
5852.00   1.29024971
5854.00   1.30642974
5856.00   1.32018673
5858.00   1.32675791
5860.00   1.32655859
5862.00   1.32387102
5864.00   1.31830263
5866.00   1.30768776
5868.00   1.29004455
5870.00   1.26806653
5872.00   1.24778128
5874.00   1.22446811
5876.00   1.20827246
5878.00   1.18918133
5880.00   1.18732619
5882.00   1.21081495
5884.00   1.24256194
5886.00   1.26100004
5888.00   1.27283382
5890.00   1.29482079
5892.00   1.32966125
5894.00   1.35235834
5896.00   1.36846209
5898.00   1.37298441
5900.00   1.35225773
5902.00   1.31023669
5904.00   1.32124436
5906.00   1.38931835
5908.00   1.41893530
5910.00   1.43566239
5912.00   1.42971861
5914.00   1.38374078
5916.00   1.31494653
5918.00   1.29178321
5920.00   1.29702306
5922.00   1.30358112
5924.00   1.32613003
5926.00   1.34613836
5928.00   1.36187983
5930.00   1.37445056
5932.00   1.38006234
5934.00   1.38155437
5936.00   1.37246180
5938.00   1.34792936
5940.00   1.32841682
5942.00   1.31384087
5944.00   1.30146480
5946.00   1.29008889
5948.00   1.27965164
5950.00   1.27558243
5952.00   1.28348565
5954.00   1.28009915
5956.00   1.26269436
5958.00   1.24753737
5960.00   1.24739456
5962.00   1.25529766
5964.00   1.24491644
5966.00   1.21547937
5968.00   1.19994807
5970.00   1.18746412
5972.00   1.18436253
5974.00   1.19971669
5976.00   1.22235227
5978.00   1.21844792
5980.00   1.19114280
5982.00   1.17737865
5984.00   1.16499364
5986.00   1.15688491
5988.00   1.15840971
5990.00   1.15954053
5992.00   1.14140308
5994.00   1.10223138
5996.00   1.09706926
5998.00   1.12212467
6000.00   1.13581097
6002.00   1.14211810
6004.00   1.14213419
6006.00   1.13092506
6008.00   1.10883808
6010.00   1.10429013
6012.00   1.11550760
6014.00   1.11761022
6016.00   1.11551571
6018.00   1.10966492
6020.00   1.09695828
6022.00   1.08017850
6024.00   1.07698286
6026.00   1.08705425
6028.00   1.09019208
6030.00   1.08973300
6032.00   1.09227371
6034.00   1.10338020
6036.00   1.11520684
6038.00   1.11009955
6040.00   1.08997309
6042.00   1.07626736
6044.00   1.05457175
6046.00   1.04781234
6048.00   1.06335199
6050.00   1.08466089
6052.00   1.09381521
6054.00   1.09936845
6056.00   1.09519100
6058.00   1.07846713
6060.00   1.06409061
6062.00   1.04678786
6064.00   1.03385556
6066.00   1.03298473
6068.00   1.04069650
6070.00   1.04276407
6072.00   1.04710305
6074.00   1.04378867
6076.00   1.02971554
6078.00   1.01903009
6080.00   1.01716018
6082.00   1.02043653
6084.00   1.02746820
6086.00   1.04525697
6088.00   1.05055428
6090.00   1.04751754
6092.00   1.04392946
6094.00   1.03743541
6096.00   1.03282833
6098.00   1.04356742
6100.00   1.07162869
6102.00   1.07984531
6104.00   1.07903576
6106.00   1.07162106
6108.00   1.05181694
6110.00   1.03166723
6112.00   1.02449751
6114.00   1.02463830
6116.00   1.02865517
6118.00   1.04214203
6120.00   1.05098581
6122.00   1.05941534
6124.00   1.06331038
6126.00   1.05832362
6128.00   1.04702389
6130.00   1.04042947
6132.00   1.03150845
6134.00   1.03078091
6136.00   1.03899109
6138.00   1.04669523
6140.00   1.05089450
6142.00   1.05414271
6144.00   1.05852759
6146.00   1.06386030
6148.00   1.06775177
6150.00   1.07420528
6152.00   1.07377791
6154.00   1.06435132
6156.00   1.05001295
6158.00   1.03447032
6160.00   1.01404035
6162.00   1.00170743
6164.00   0.99150968
6166.00   0.98902178
6168.00   0.99460959
6170.00   1.00595999
6172.00   1.02411354
6174.00   1.05005801
6176.00   1.05850995
6178.00   1.05222642
6180.00   1.04979765
6182.00   1.04658079
6184.00   1.04432142
6186.00   1.04426026
6188.00   1.04559839
6190.00   1.04741216
6192.00   1.05258274
6194.00   1.05248988
6196.00   1.04848862
6198.00   1.04376006
6200.00   1.03677702
6202.00   1.03046441
6204.00   1.03348029
6206.00   1.04471302
6208.00   1.05393362
6210.00   1.06958199
6212.00   1.07608998
6214.00   1.06865871
6216.00   1.05864012
6218.00   1.05900371
6220.00   1.06575108
6222.00   1.06610477
6224.00   1.06338406
6226.00   1.06019151
6228.00   1.05302644
6230.00   1.04923832
6232.00   1.05731857
6234.00   1.07333231
6236.00   1.07050872
6238.00   1.04863846
6240.00   1.03870285
6242.00   1.03637958
6244.00   1.03327167
6246.00   1.02573633
6248.00   1.01679969
6250.00   1.01154518
6252.00   1.00879300
6254.00   1.00596964
6256.00   1.00606763
6258.00   1.00280178
6260.00   0.99408662
6262.00   0.98329926
6264.00   0.97501713
6266.00   0.96754211
6268.00   0.96006554
6270.00   0.95347852
6272.00   0.94586319
6274.00   0.93684012
6276.00   0.92760557
6278.00   0.91946214
6280.00   0.91208833
6282.00   0.90242767
6284.00   0.88460112
6286.00   0.88052350
6288.00   0.89306068
6290.00   0.90493643
6292.00   0.90513664
6294.00   0.90021420
6296.00   0.90494710
6298.00   0.92036712
6300.00   0.92559826
6302.00   0.92227638
6304.00   0.92126900
6306.00   0.92800689
6308.00   0.93629771
6310.00   0.93349093
6312.00   0.91746712
6314.00   0.91665190
6316.00   0.92337620
6318.00   0.93478149
6320.00   0.95513403
6322.00   0.97615719
6324.00   0.98450595
6326.00   0.98428267
6328.00   0.98520416
6330.00   0.98199821
6332.00   0.98130292
6334.00   0.98284763
6336.00   0.98531902
6338.00   0.98845261
6340.00   0.99255192
6342.00   0.99395090
6344.00   0.99189961
6346.00   0.99285090
6348.00   0.99582678
6350.00   0.99968874
6352.00   1.00496280
6354.00   1.01090229
6356.00   1.01220858
6358.00   1.00216877
6360.00   1.01032782
6362.00   1.03986740
6364.00   1.05774128
6366.00   1.05466187
6368.00   1.04230726
6370.00   1.03364551
6372.00   1.01925898
6374.00   1.01928377
6376.00   1.03578186
6378.00   1.04414570
6380.00   1.04008520
6382.00   1.03549790
6384.00   1.04317868
6386.00   1.06026649
6388.00   1.06347775
6390.00   1.05064976
6392.00   1.05240667
6394.00   1.07021058
6396.00   1.08857417
6398.00   1.10206509
6400.00   1.11358249
6402.00   1.09694612
6404.00   1.03242159
6406.00   1.01499152
6408.00   1.03607786
6410.00   1.05555844
6412.00   1.05878627
6414.00   1.05742502
6416.00   1.06346166
6418.00   1.07610273
6420.00   1.08150542
6422.00   1.08472359
6424.00   1.08321500
6426.00   1.07405889
6428.00   1.06254220
6430.00   1.05784130
6432.00   1.05819881
6434.00   1.05265617
6436.00   1.03809357
6438.00   1.03443074
6440.00   1.04552996
6442.00   1.05852711
6444.00   1.06254375
6446.00   1.06238461
6448.00   1.06105125
6450.00   1.05616939
6452.00   1.05212438
6454.00   1.04999197
6456.00   1.04494059
6458.00   1.03254592
6460.00   1.01589513
6462.00   1.00825679
6464.00   1.00765216
6466.00   1.00489902
6468.00   1.00352263
6470.00   1.00087988
6472.00   0.99544001
6474.00   0.98911238
6476.00   0.98588312
6478.00   0.98579806
6480.00   0.98219508
6482.00   0.97411168
6484.00   0.97029066
6486.00   0.97274059
6488.00   0.97703993
6490.00   0.97829574
6492.00   0.97813851
6494.00   0.97964191
6496.00   0.98238695
6498.00   0.98461157
6500.00   0.98696345
6502.00   0.98849750
6504.00   0.98762727
6506.00   0.98488694
6508.00   0.98699379
6510.00   0.99665195
6512.00   0.99761516
6514.00   0.98979574
6516.00   0.98298329
6518.00   0.97981668
6520.00   0.97917694
6522.00   0.98690009
6524.00   1.00771058
6526.00   1.01760924
6528.00   1.02160203
6530.00   1.02559626
6532.00   1.03096366
6534.00   1.03593290
6536.00   1.03893530
6538.00   1.04135215
6540.00   1.03950572
6542.00   1.02952635
6544.00   1.02635705
6546.00   1.03303075
6548.00   1.04096603
6550.00   1.04228103
6552.00   1.04054105
6554.00   1.03526580
6556.00   1.02158105
6558.00   1.01533616
6560.00   1.01584959
6562.00   1.01817048
6564.00   1.01940775
6566.00   1.02111673
6568.00   1.02616346
6570.00   1.03186262
6572.00   1.04379332
6574.00   1.06814384
6576.00   1.08462715
6578.00   1.08451653
6580.00   1.07591534
6582.00   1.07171237
6584.00   1.06560683
6586.00   1.06325412
6588.00   1.06398070
6590.00   1.06482625
6592.00   1.06633127
6594.00   1.06742024
6596.00   1.06633794
6598.00   1.06608403
6600.00   1.05351007
6602.00   1.02141893
6604.00   1.00440753
6606.00   1.00208676
6608.00   1.00695240
6610.00   1.01695669
6612.00   1.03454709
6614.00   1.03817821
6616.00   1.02861679
6618.00   1.02659106
6620.00   1.02683091
6622.00   1.03189874
6624.00   1.04540408
6626.00   1.06455779
6628.00   1.07699847
6630.00   1.09047127
6632.00   1.09378433
6634.00   1.08590579
6636.00   1.07838702
6638.00   1.07223809
6640.00   1.06758869
6642.00   1.07053041
6644.00   1.08193719
6646.00   1.08770108
6648.00   1.09309018
6650.00   1.09536886
6652.00   1.09261560
6654.00   1.08892059
6656.00   1.08942986
6658.00   1.09226763
6660.00   1.09497559
6662.00   1.09871960
6664.00   1.10234892
6666.00   1.10811830
6668.00   1.11112916
6670.00   1.10691917
6672.00   1.09753823
6674.00   1.09024560
6676.00   1.07887912
6678.00   1.07543933
6680.00   1.07872999
6682.00   1.08450294
6684.00   1.09040272
6686.00   1.09845817
6688.00   1.11358714
6690.00   1.13961339
6692.00   1.15634573
6694.00   1.17107129
6696.00   1.18022037
6698.00   1.18004954
6700.00   1.17688096
6702.00   1.18305361
6704.00   1.19807482
6706.00   1.19943941
6708.00   1.19203281
6710.00   1.18231428
6712.00   1.16627669
6714.00   1.15146255
6716.00   1.14785123
6718.00   1.15248454
6720.00   1.14979291
6722.00   1.14264929
6724.00   1.13822830
6726.00   1.13686872
6728.00   1.13457358
6730.00   1.12826586
6732.00   1.11975133
6734.00   1.11594570
6736.00   1.11505342
6738.00   1.11497056
6740.00   1.11788785
6742.00   1.11942470
6744.00   1.11881125
6746.00   1.11632657
6748.00   1.10991168
6750.00   1.09916937
6752.00   1.08878219
6754.00   1.07404959
6756.00   1.06442201
6758.00   1.06102169
6760.00   1.06166303
6762.00   1.06635070
6764.00   1.07933557
6766.00   1.07474017
6768.00   1.05203676
6770.00   1.03807640
6772.00   1.03124237
6774.00   1.02802455
6776.00   1.02812183
6778.00   1.03218520
6780.00   1.03150284
6782.00   1.02641857
6784.00   1.02529526
6786.00   1.02944863
6788.00   1.03102291
6790.00   1.02585196
6792.00   1.01672399
6794.00   1.00820839
6796.00   0.99479437
6798.00   0.98955691
6800.00   0.99146348
6802.00   0.99285716
6804.00   0.99315476
6806.00   0.99227965
6808.00   0.98640871
6810.00   0.97395170
6812.00   0.96882969
6814.00   0.96873003
6816.00   0.96780449
6818.00   0.96634656
6820.00   0.96431178
6822.00   0.96037680
6824.00   0.95430291
6826.00   0.95244545
6828.00   0.95507950
6830.00   0.95489979
6832.00   0.95294499
6834.00   0.94943297
6836.00   0.94319922
6838.00   0.93472427
6840.00   0.93203330
6842.00   0.93623954
6844.00   0.93460363
6846.00   0.92739826
6848.00   0.92203182
6850.00   0.92065126
6852.00   0.92199874
6854.00   0.92776293
6856.00   0.94215852
6858.00   0.94739628
6860.00   0.95351928
6862.00   0.94717920
6864.00   0.91843557
6866.00   0.88444251
6868.00   0.87372428
6870.00   0.87619960
6872.00   0.88415545
6874.00   0.90906358
6876.00   0.92367482
6878.00   0.92831141
6880.00   0.92753154
6882.00   0.92196363
6884.00   0.90988463
6886.00   0.90738267
6888.00   0.91367686
6890.00   0.91427225
6892.00   0.90962046
6894.00   0.90537131
6896.00   0.90465993
6898.00   0.90565777
6900.00   0.90540308
6902.00   0.90452307
6904.00   0.90441793
6906.00   0.90577424
6908.00   0.90571141
6910.00   0.90289503
6912.00   0.89880705
6914.00   0.89600378
6916.00   0.89205790
6918.00   0.89292550
6920.00   0.89888805
6922.00   0.90387344
6924.00   0.91062242
6926.00   0.91392493
6928.00   0.90292579
6930.00   0.87694901
6932.00   0.86974770
6934.00   0.87712353
6936.00   0.87873662
6938.00   0.87429351
6940.00   0.87041765
6942.00   0.87267709
6944.00   0.87898970
6946.00   0.87630987
6948.00   0.86534190
6950.00   0.85813314
6952.00   0.85054779
6954.00   0.84635776
6956.00   0.84751987
6958.00   0.85274488
6960.00   0.86088747
6962.00   0.87897176
6964.00   0.88435823
6966.00   0.88118315
6968.00   0.87653476
6970.00   0.87002236
6972.00   0.86313844
6974.00   0.86215317
6976.00   0.86619335
6978.00   0.86778367
6980.00   0.86916214
6982.00   0.87056535
6984.00   0.87114555
6986.00   0.87264818
6988.00   0.87709296
6990.00   0.88348538
6992.00   0.89271098
6994.00   0.90863442
6996.00   0.91823179
6998.00   0.92057532
7000.00   0.92300040
7002.00   0.92984957
7004.00   0.93886864
7006.00   0.94930089
7008.00   0.96436107
7010.00   0.97431624
7012.00   0.97915876
7014.00   0.98535168
7016.00   0.99642992
7018.00   1.00896752
7020.00   1.01532638
7022.00   1.01588142
7024.00   1.01995933
7026.00   1.02466679
7028.00   1.03025866
7030.00   1.03725493
7032.00   1.04470515
7034.00   1.05072212
7036.00   1.05502260
7038.00   1.06342411
7040.00   1.07928813
7042.00   1.08687305
7044.00   1.08492351
7046.00   1.07965076
7048.00   1.07474720
7050.00   1.06774533
7052.00   1.06820571
7054.00   1.08031189
7056.00   1.08050632
7058.00   1.07042837
7060.00   1.05757594
7062.00   1.04242718
7064.00   1.02553153
7066.00   1.02511466
7068.00   1.04289675
7070.00   1.05136883
7072.00   1.05409884
7074.00   1.06220853
7076.00   1.08381629
7078.00   1.10820103
7080.00   1.11046422
7082.00   1.08806872
7084.00   1.09222221
7086.00   1.11789024
7088.00   1.13408422
7090.00   1.13929391
7092.00   1.13805354
7094.00   1.13016796
7096.00   1.11277807
7098.00   1.10598278
7100.00   1.10607076
7102.00   1.10451400
7104.00   1.10235786
7106.00   1.09988511
7108.00   1.09670103
7110.00   1.09294903
7112.00   1.09003317
7114.00   1.08853686
7116.00   1.08500397
7118.00   1.07793009
7120.00   1.07323444
7122.00   1.07556057
7124.00   1.08077836
7126.00   1.07593405
7128.00   1.06384611
7130.00   1.05121028
7132.00   1.03119910
7134.00   1.01733470
7136.00   1.01278782
7138.00   1.01343369
7140.00   1.01573563
7142.00   1.02388418
7144.00   1.02434194
7146.00   1.02047956
7148.00   1.01481915
7150.00   1.00791824
7152.00   0.99822789
7154.00   0.98260260
7156.00   0.96018070
7158.00   0.95176560
7160.00   0.95812339
7162.00   0.95531172
7164.00   0.94408625
7166.00   0.93261498
7168.00   0.92399782
7170.00   0.91666579
7172.00   0.91854036
7174.00   0.93481207
7176.00   0.93913615
7178.00   0.93406898
7180.00   0.93088377
7182.00   0.93474698
7184.00   0.94062734
7186.00   0.93915308
7188.00   0.93212485
7190.00   0.92620641
7192.00   0.91849822
7194.00   0.91154200
7196.00   0.90507174
7198.00   0.89963555
7200.00   0.89661586
7202.00   0.89512491
7204.00   0.89700001
7206.00   0.90490979
7208.00   0.90895671
7210.00   0.90880781
7212.00   0.90761679
7214.00   0.90741104
7216.00   0.90718406
7218.00   0.90770102
7220.00   0.90964603
7222.00   0.90999913
7224.00   0.90694803
7226.00   0.90661049
7228.00   0.91299707
7230.00   0.92338037
7232.00   0.93068856
7234.00   0.93682933
7236.00   0.94390208
7238.00   0.95391917
7240.00   0.95973021
7242.00   0.95929927
7244.00   0.95479321
7246.00   0.94783205
7248.00   0.93311256
7250.00   0.93106300
7252.00   0.94090050
7254.00   0.94651574
7256.00   0.94701672
7258.00   0.94538546
7260.00   0.94196320
7262.00   0.93433887
7264.00   0.93902016
7266.00   0.95844209
7268.00   0.96845597
7270.00   0.97155619
7272.00   0.97016931
7274.00   0.96298683
7276.00   0.95026439
7278.00   0.94799334
7280.00   0.95525223
7282.00   0.95712584
7284.00   0.95804024
7286.00   0.95564604
7288.00   0.94552052
7290.00   0.93244892
7292.00   0.93470997
7294.00   0.95371437
7296.00   0.96027857
7298.00   0.96307659
7300.00   0.96217787
7302.00   0.95254850
7304.00   0.94309503
7306.00   0.95299524
7308.00   0.98208040
7310.00   0.99226934
7312.00   0.99420881
7314.00   0.99170732
7316.00   0.98260361
7318.00   0.97091007
7320.00   0.96054220
7322.00   0.94892019
7324.00   0.94424605
7326.00   0.94736207
7328.00   0.94702864
7330.00   0.94544494
7332.00   0.94220716
7334.00   0.93593770
7336.00   0.92750448
7338.00   0.92269266
7340.00   0.92162257
7342.00   0.91713595
7344.00   0.90945518
7346.00   0.90306836
7348.00   0.90083963
7350.00   0.89946687
7352.00   0.89102030
7354.00   0.87368083
7356.00   0.86666429
7358.00   0.86423951
7360.00   0.86612815
7362.00   0.87522084
7364.00   0.88595831
7366.00   0.88951045
7368.00   0.88920772
7370.00   0.88718885
7372.00   0.88207281
7374.00   0.87599802
7376.00   0.86636305
7378.00   0.85849762
7380.00   0.85829812
7382.00   0.86362344
7384.00   0.86277360
7386.00   0.85804194
7388.00   0.85475963
7390.00   0.84975255
7392.00   0.84818739
7394.00   0.85355788
7396.00   0.86333585
7398.00   0.87102646
7400.00   0.88403773
7402.00   0.88522130
7404.00   0.87538368
7406.00   0.86609441
7408.00   0.85798848
7410.00   0.85157555
7412.00   0.85348916
7414.00   0.86535484
7416.00   0.86810136
7418.00   0.86440849
7420.00   0.86373371
7422.00   0.86856985
7424.00   0.87286252
7426.00   0.86887389
7428.00   0.85735005
7430.00   0.85882515
7432.00   0.87306833
7434.00   0.87996042
7436.00   0.88380331
7438.00   0.88179481
7440.00   0.86734343
7442.00   0.84339726
7444.00   0.84053952
7446.00   0.85703117
7448.00   0.86394107
7450.00   0.86835670
7452.00   0.87017566
7454.00   0.86855292
7456.00   0.86440980
7458.00   0.86065674
7460.00   0.85377860
7462.00   0.85274541
7464.00   0.85521799
7466.00   0.86021674
7468.00   0.86813742
7470.00   0.87820506
7472.00   0.88977772
7474.00   0.90751046
7476.00   0.90818673
7478.00   0.88995141
7480.00   0.88038540
7482.00   0.88106179
7484.00   0.88318706
7486.00   0.88057870
7488.00   0.87617195
7490.00   0.86878353
7492.00   0.85383832
7494.00   0.84713674
7496.00   0.84669501
7498.00   0.85002118
7500.00   0.85703409
7502.00   0.86758387
7504.00   0.87582517
7506.00   0.88675284
7508.00   0.89058250
7510.00   0.88847095
7512.00   0.88447738
7514.00   0.87932450
7516.00   0.87263256
7518.00   0.86530370
7520.00   0.85409302
7522.00   0.85091132
7524.00   0.85742426
7526.00   0.85828680
7528.00   0.85133547
7530.00   0.84122318
7532.00   0.83123076
7534.00   0.81815112
7536.00   0.81375402
7538.00   0.81705266
7540.00   0.81948316
7542.00   0.82295024
7544.00   0.82559419
7546.00   0.82342952
7548.00   0.81754416
7550.00   0.82599127
7552.00   0.85294271
7554.00   0.86504692
7556.00   0.87113380
7558.00   0.86749053
7560.00   0.84546059
7562.00   0.81344658
7564.00   0.80947930
7566.00   0.83319849
7568.00   0.83854407
7570.00   0.83866298
7572.00   0.83485162
7574.00   0.82378852
7576.00   0.81121755
7578.00   0.81136841
7580.00   0.82430422
7582.00   0.82343650
7584.00   0.81271112
7586.00   0.80487680
7588.00   0.80283993
7590.00   0.79897094
7592.00   0.78178632
7594.00   0.75012028
7596.00   0.75666410
7598.00   0.79973316
7600.00   0.83059889
7602.00   0.86776900
7604.00   0.88602084
7606.00   0.85816771
7608.00   0.79820770
7610.00   0.77610582
7612.00   0.77049571
7614.00   0.77175975
7616.00   0.79124230
7618.00   0.80534512
7620.00   0.80591011
7622.00   0.79898953
7624.00   0.78707927
7626.00   0.75961012
7628.00   0.75298071
7630.00   0.76290697
7632.00   0.77042514
7634.00   0.77294016
7636.00   0.77451134
7638.00   0.77760947
7640.00   0.78165627
7642.00   0.78426456
7644.00   0.78630769
7646.00   0.78742468
7648.00   0.78694361
7650.00   0.78643137
7652.00   0.78752607
7654.00   0.78961945
7656.00   0.79077393
7658.00   0.79475695
7660.00   0.79159611
7662.00   0.77990770
7664.00   0.76805633
7666.00   0.75980639
7668.00   0.75310600
7670.00   0.74965876
7672.00   0.74959165
7674.00   0.75044578
7676.00   0.75710362
7678.00   0.75814664
7680.00   0.74828434
7682.00   0.73381227
7684.00   0.72574204
7686.00   0.71773034
7688.00   0.71871054
7690.00   0.73099822
7692.00   0.73987228
7694.00   0.74586326
7696.00   0.74865162
7698.00   0.74403173
7700.00   0.73087132
7702.00   0.72919601
7704.00   0.73308814
7706.00   0.74090523
7708.00   0.75881785
7710.00   0.77301300
7712.00   0.77171206
7714.00   0.76035279
7716.00   0.74931777
7718.00   0.72516048
7720.00   0.72011203
7722.00   0.73474765
7724.00   0.74853879
7726.00   0.75213343
7728.00   0.75226980
7730.00   0.75807244
7732.00   0.76931930
7734.00   0.77509892
7736.00   0.77878630
7738.00   0.78000122
7740.00   0.77408332
7742.00   0.76904601
7744.00   0.78357601
7746.00   0.82111603
7748.00   0.82871211
7750.00   0.81839323
7752.00   0.80348384
7754.00   0.77714103
7756.00   0.75196755
7758.00   0.74458110
7760.00   0.74902672
7762.00   0.75183868
7764.00   0.75973904
7766.00   0.76548737
7768.00   0.76899540
7770.00   0.77350873
7772.00   0.78215945
7774.00   0.79318666
7776.00   0.79640365
7778.00   0.79226822
7780.00   0.79104489
7782.00   0.79073417
7784.00   0.78960544
7786.00   0.78686094
7788.00   0.78330135
7790.00   0.78038114
7792.00   0.77543741
7794.00   0.77668196
7796.00   0.78504258
7798.00   0.79075664
7800.00   0.79254001
7802.00   0.79264820
7804.00   0.79208201
7806.00   0.78878391
7808.00   0.79229701
7810.00   0.80067915
7812.00   0.81062037
7814.00   0.82628345
7816.00   0.83914095
7818.00   0.84115070
7820.00   0.83598799
7822.00   0.82529539
7824.00   0.79824615
7826.00   0.78782904
7828.00   0.79197699
7830.00   0.79881060
7832.00   0.80260867
7834.00   0.80692625
7836.00   0.81589091
7838.00   0.83171821
7840.00   0.84196383
7842.00   0.85243726
7844.00   0.85695225
7846.00   0.85230297
7848.00   0.84266442
7850.00   0.83545679
7852.00   0.82544929
7854.00   0.82294297
7856.00   0.82867706
7858.00   0.83119929
7860.00   0.82955694
7862.00   0.82652992
7864.00   0.82397586
7866.00   0.82097363
7868.00   0.81840879
7870.00   0.81272775
7872.00   0.81407773
7874.00   0.82463628
7876.00   0.83579481
7878.00   0.84128672
7880.00   0.84414285
7882.00   0.84897363
7884.00   0.85621041
7886.00   0.85927242
7888.00   0.86021250
7890.00   0.85773939
7892.00   0.84909528
7894.00   0.83732212
7896.00   0.83421624
7898.00   0.83792907
7900.00   0.83951551
7902.00   0.84132951
7904.00   0.84425086
7906.00   0.84953517
7908.00   0.85502970
7910.00   0.85702169
7912.00   0.85815579
7914.00   0.85257643
7916.00   0.83671886
7918.00   0.82676148
7920.00   0.82318640
7922.00   0.82219690
7924.00   0.82246143
7926.00   0.82577425
7928.00   0.82002360
7930.00   0.80304605
7932.00   0.79435724
7934.00   0.79092830
7936.00   0.79150999
7938.00   0.79681641
7940.00   0.80632788
7942.00   0.81392223
7944.00   0.82422185
7946.00   0.82900506
7948.00   0.83196640
7950.00   0.82904387
7952.00   0.81533438
7954.00   0.79713362
7956.00   0.79178435
7958.00   0.79617810
7960.00   0.79651260
7962.00   0.80006188
7964.00   0.79792804
7966.00   0.78483367
7968.00   0.77098370
7970.00   0.77128500
7972.00   0.78203452
7974.00   0.78785890
7976.00   0.79685086
7978.00   0.79925138
7980.00   0.79360133
7982.00   0.78584450
7984.00   0.77977103
7986.00   0.77323884
7988.00   0.77201694
7990.00   0.77971464
7992.00   0.77841330
7994.00   0.76876587
7996.00   0.75883734
7998.00   0.75102824
8000.00   0.74429494
8002.00   0.74411142
8004.00   0.75540966
8006.00   0.75482410
8008.00   0.74235940
8010.00   0.73682171
8012.00   0.74435347
8014.00   0.75738698
8016.00   0.76588136
8018.00   0.77464378
8020.00   0.77968109
8022.00   0.78635132
8024.00   0.78248990
8026.00   0.76104081
8028.00   0.73775017
8030.00   0.73115796
8032.00   0.73433357
8034.00   0.73826897
8036.00   0.75195390
8038.00   0.75647426
8040.00   0.75101912
8042.00   0.74450207
8044.00   0.74232638
8046.00   0.74174637
8048.00   0.74168605
8050.00   0.74223399
8052.00   0.74431854
8054.00   0.74839467
8056.00   0.75267524
8058.00   0.75751460
8060.00   0.76209795
8062.00   0.76148474
8064.00   0.75516218
8066.00   0.75176036
8068.00   0.74959952
8070.00   0.74612004
8072.00   0.74033272
8074.00   0.73387778
8076.00   0.72860223
8078.00   0.72178656
8080.00   0.72386473
8082.00   0.73887634
8084.00   0.74476069
8086.00   0.74158341
8088.00   0.73351002
8090.00   0.72033757
8092.00   0.69986194
8094.00   0.69809169
8096.00   0.71524817
8098.00   0.72315532
8100.00   0.72676229
8102.00   0.72705227
8104.00   0.72265494
8106.00   0.71460199
8108.00   0.71097076
8110.00   0.71048087
8112.00   0.70786953
8114.00   0.70199192
8116.00   0.69981098
8118.00   0.70572370
8120.00   0.71437055
8122.00   0.71367306
8124.00   0.70364779
8126.00   0.70317662
8128.00   0.70715439
8130.00   0.71370232
8132.00   0.72608423
8134.00   0.73795056
8136.00   0.73901099
8138.00   0.73198760
8140.00   0.72732443
8142.00   0.71752429
8144.00   0.71535021
8146.00   0.72384566
8148.00   0.73225445
8150.00   0.73136538
8152.00   0.72508955
8154.00   0.72553682
8156.00   0.72994459
8158.00   0.73395103
8160.00   0.73876560
8162.00   0.74376649
8164.00   0.74859941
8166.00   0.75349796
8168.00   0.75865495
8170.00   0.76185769
8172.00   0.77046102
8174.00   0.78686118
8176.00   0.79836619
8178.00   0.80265230
8180.00   0.80216068
8182.00   0.79652125
8184.00   0.77953219
8186.00   0.78099877
8188.00   0.80320960
8190.00   0.81196082
8192.00   0.80225265
8194.00   0.78874129
8196.00   0.78483117
8198.00   0.78523052
8200.00   0.78468412
8202.00   0.78629833
8204.00   0.78571922
8206.00   0.78250760
8208.00   0.77943605
8210.00   0.77833068
8212.00   0.77824336
8214.00   0.77759099
8216.00   0.77775323
8218.00   0.77599233
8220.00   0.77079874
8222.00   0.76798081
8224.00   0.77077907
8226.00   0.77603400
8228.00   0.77663016
8230.00   0.77138376
8232.00   0.77480757
8234.00   0.78716189
8236.00   0.79527473
8238.00   0.79677033
8240.00   0.79554528
8242.00   0.79445648
8244.00   0.78996330
8246.00   0.79520845
8248.00   0.81518382
8250.00   0.82218713
8252.00   0.81510347
8254.00   0.80250728
8256.00   0.78845602
8258.00   0.76960689
8260.00   0.76465839
8262.00   0.77195817
8264.00   0.77683741
8266.00   0.78430134
8268.00   0.78911161
8270.00   0.78753489
8272.00   0.78191370
8274.00   0.77720308
8276.00   0.77288139
8278.00   0.76478344
8280.00   0.74940366
8282.00   0.73944396
8284.00   0.73754340
8286.00   0.74168968
8288.00   0.75377846
8290.00   0.78103286
8292.00   0.78972369
8294.00   0.78539807
8296.00   0.78198409
8298.00   0.77920204
8300.00   0.77689677
8302.00   0.77805698
8304.00   0.78338939
8306.00   0.77929157
8308.00   0.76688629
8310.00   0.75624740
8312.00   0.74292010
8314.00   0.73403585
8316.00   0.73792589
8318.00   0.75121152
8320.00   0.75311095
8322.00   0.74653518
8324.00   0.74508995
8326.00   0.74419403
8328.00   0.74762052
8330.00   0.75975281
8332.00   0.77639669
8334.00   0.78242457
8336.00   0.78107268
8338.00   0.78038269
8340.00   0.78529388
8342.00   0.77532583
8344.00   0.73656595
8346.00   0.69107103
8348.00   0.67907339
8350.00   0.69047654
8352.00   0.69645298
8354.00   0.71216077
8356.00   0.71918869
8358.00   0.71491981
8360.00   0.70762217
8362.00   0.70431727
8364.00   0.70171243
8366.00   0.70127046
8368.00   0.70324236
8370.00   0.70532209
8372.00   0.70922488
8374.00   0.71176016
8376.00   0.71033853
8378.00   0.70637858
8380.00   0.70415068
8382.00   0.70354742
8384.00   0.69998366
8386.00   0.69026124
8388.00   0.68605405
8390.00   0.69616681
8392.00   0.71062255
8394.00   0.70346135
8396.00   0.67535383
8398.00   0.66160202
8400.00   0.64911407
8402.00   0.64484936
8404.00   0.65191954
8406.00   0.66455865
8408.00   0.67636931
8410.00   0.69481635
8412.00   0.69184816
8414.00   0.66225576
8416.00   0.64902258
8418.00   0.65418941
8420.00   0.66262501
8422.00   0.66411668
8424.00   0.66359568
8426.00   0.65929705
8428.00   0.64667523
8430.00   0.64222831
8432.00   0.64452446
8434.00   0.64860719
8436.00   0.65312588
8438.00   0.65861142
8440.00   0.66073245
8442.00   0.65741068
8444.00   0.66087770
8446.00   0.67186946
8448.00   0.67879337
8450.00   0.67878896
8452.00   0.67470229
8454.00   0.66741341
8456.00   0.64854127
8458.00   0.65331864
8460.00   0.68296617
8462.00   0.70213252
8464.00   0.70924479
8466.00   0.71014732
8468.00   0.70621365
8470.00   0.69495660
8472.00   0.69027907
8474.00   0.69046992
8476.00   0.68686271
8478.00   0.67584920
8480.00   0.66890383
8482.00   0.67672461
8484.00   0.69451207
8486.00   0.69845420
8488.00   0.69288105
8490.00   0.69035393
8492.00   0.68829995
8494.00   0.68567187
8496.00   0.68096662
8498.00   0.67585939
8500.00   0.67696810
8502.00   0.68599576
8504.00   0.68805873
8506.00   0.68474573
8508.00   0.68407321
8510.00   0.68705046
8512.00   0.69251817
8514.00   0.70181829
8516.00   0.71987420
8518.00   0.71893770
8520.00   0.69654143
8522.00   0.68612754
8524.00   0.68906051
8526.00   0.69666004
8528.00   0.70480496
8530.00   0.71724194
8532.00   0.71475875
8534.00   0.69667917
8536.00   0.68524474
8538.00   0.67672646
8540.00   0.67035800
8542.00   0.66655588
8544.00   0.66505873
8546.00   0.66426998
8548.00   0.66541219
8550.00   0.66628432
8552.00   0.66972500
8554.00   0.66968548
8556.00   0.66214675
8558.00   0.65178406
8560.00   0.64930123
8562.00   0.65013111
8564.00   0.65632415
8566.00   0.67209154
8568.00   0.68349922
8570.00   0.68931937
8572.00   0.69200259
8574.00   0.69228250
8576.00   0.68918622
8578.00   0.68679982
8580.00   0.68382800
8582.00   0.68024522
8584.00   0.67574668
8586.00   0.67103165
8588.00   0.66616583
8590.00   0.66083604
8592.00   0.66000372
8594.00   0.66143602
8596.00   0.66693437
8598.00   0.68051738
8600.00   0.69100165
8602.00   0.69222558
8604.00   0.68836361
8606.00   0.68654996
8608.00   0.68074077
8610.00   0.68268871
8612.00   0.69319725
8614.00   0.70057148
8616.00   0.70088977
8618.00   0.69904125
8620.00   0.70237249
8622.00   0.71212381
8624.00   0.70963776
8626.00   0.69527864
8628.00   0.68496877
8630.00   0.67646378
8632.00   0.67282039
8634.00   0.68263155
8636.00   0.70672405
8638.00   0.70906681
8640.00   0.68955535
8642.00   0.68511575
8644.00   0.69701093
8646.00   0.70855618
8648.00   0.70706826
8650.00   0.69874167
8652.00   0.70656437
8654.00   0.73061812
8656.00   0.74457282
8658.00   0.75817353
8660.00   0.76272815
8662.00   0.75187844
8664.00   0.73183811
8666.00   0.71876746
8668.00   0.70428318
8670.00   0.69722319
8672.00   0.69710249
8674.00   0.69780064
8676.00   0.69958937
8678.00   0.70161992
8680.00   0.70019823
8682.00   0.69496924
8684.00   0.69575459
8686.00   0.70146424
8688.00   0.70607173
8690.00   0.70878720
8692.00   0.71252233
8694.00   0.72104365
8696.00   0.73398489
8698.00   0.73586708
8700.00   0.72434038
8702.00   0.72323906
8704.00   0.73392743
8706.00   0.74182898
8708.00   0.73705858
8710.00   0.72570050
8712.00   0.72545022
8714.00   0.73689693
8716.00   0.73716003
8718.00   0.72866148
8720.00   0.72170371
8722.00   0.71987695
8724.00   0.71957237
8726.00   0.71589273
8728.00   0.70901388
8730.00   0.70590860
8732.00   0.70252007
8734.00   0.70445073
8736.00   0.71622348
8738.00   0.72879726
8740.00   0.72969818
8742.00   0.72347075
8744.00   0.71475375
8746.00   0.69527960
8748.00   0.68590808
8750.00   0.68899882
8752.00   0.69295412
8754.00   0.68888628
8756.00   0.68077028
8758.00   0.67609817
8760.00   0.67380828
8762.00   0.66910136
8764.00   0.65949500
8766.00   0.65407485
8768.00   0.65882307
8770.00   0.66901106
8772.00   0.67181605
8774.00   0.67074573
8776.00   0.66973627
8778.00   0.66895145
8780.00   0.66470343
8782.00   0.65128744
8784.00   0.63790488
8786.00   0.64480764
8788.00   0.67133260
8790.00   0.68302447
8792.00   0.69202232
8794.00   0.69402820
8796.00   0.68443781
8798.00   0.67343479
8800.00   0.67323631
8802.00   0.67968792
8804.00   0.68225712
8806.00   0.68462372
8808.00   0.68604887
8810.00   0.68468767
8812.00   0.68526244
8814.00   0.69151670
8816.00   0.70150584
8818.00   0.70952672
8820.00   0.71637332
8822.00   0.72595978
8824.00   0.75253773
8826.00   0.75582057
8828.00   0.70942485
8830.00   0.64049554
8832.00   0.61605304
8834.00   0.61654806
8836.00   0.62130213
8838.00   0.64806962
8840.00   0.66398972
8842.00   0.66145915
8844.00   0.65334594
8846.00   0.65390944
8848.00   0.65747935
8850.00   0.66314524
8852.00   0.67308146
8854.00   0.68157166
8856.00   0.69068164
8858.00   0.69709826
8860.00   0.69704080
8862.00   0.69210452
8864.00   0.68437582
8866.00   0.66877818
8868.00   0.65931350
8870.00   0.65020072
8872.00   0.64893305
8874.00   0.66260749
8876.00   0.68629801
8878.00   0.70064026
8880.00   0.72013575
8882.00   0.71924162
8884.00   0.69838393
8886.00   0.67582107
8888.00   0.65266371
8890.00   0.63013285
8892.00   0.62103564
8894.00   0.62312430
8896.00   0.62501401
8898.00   0.63331044
8900.00   0.63891077
8902.00   0.64103508
8904.00   0.64171803
8906.00   0.64208716
8908.00   0.64127266
8910.00   0.64195490
8912.00   0.64492309
8914.00   0.64506698
8916.00   0.64377952
8918.00   0.63946217
8920.00   0.62901586
8922.00   0.61348295
8924.00   0.60690361
8926.00   0.60507220
8928.00   0.60607994
8930.00   0.61175936
8932.00   0.61850977
8934.00   0.62535840
8936.00   0.63268167
8938.00   0.63811594
8940.00   0.64976627
8942.00   0.64217204
8944.00   0.60742790
8946.00   0.58877802
8948.00   0.59751421
8950.00   0.61828232
8952.00   0.63504404
8954.00   0.66156840
8956.00   0.66176027
8958.00   0.63526297
8960.00   0.61669570
8962.00   0.60450244
8964.00   0.59687507
8966.00   0.59670466
8968.00   0.60410362
8970.00   0.60601628
8972.00   0.60499525
8974.00   0.60652292
8976.00   0.61187214
8978.00   0.61564749
8980.00   0.61444914
8982.00   0.61010885
8984.00   0.60496563
8986.00   0.59202743
8988.00   0.59175408
8990.00   0.60180956
8992.00   0.61431247
8994.00   0.63095033
8996.00   0.64789754
8998.00   0.64640665
9000.00   0.62570500
9002.00   0.61621654
9004.00   0.60217649
9006.00   0.60242617
9008.00   0.62878299
9010.00   0.65918672
9012.00   0.65967077
9014.00   0.63765353
9016.00   0.63171589
9018.00   0.63212925
9020.00   0.63120711
9022.00   0.62879813
9024.00   0.62713766
9026.00   0.62768286
9028.00   0.62976098
9030.00   0.63315862
9032.00   0.63925463
9034.00   0.64385062
9036.00   0.65009212
9038.00   0.65224195
9040.00   0.64432907
9042.00   0.63097441
9044.00   0.63172311
9046.00   0.64872110
9048.00   0.65113539
9050.00   0.64550591
9052.00   0.63807595
9054.00   0.63104033
9056.00   0.62180007
9058.00   0.60532236
9060.00   0.57354617
9062.00   0.57041979
9064.00   0.59319586
9066.00   0.61028653
9068.00   0.62503988
9070.00   0.63305247
9072.00   0.62079871
9074.00   0.58814240
9076.00   0.57898945
9078.00   0.57832807
9080.00   0.58862954
9082.00   0.62104428
9084.00   0.64849222
9086.00   0.64860386
9088.00   0.63201159
9090.00   0.62457526
9092.00   0.61794806
9094.00   0.61039573
9096.00   0.59903347
9098.00   0.59244359
9100.00   0.59640050
9102.00   0.60563463
9104.00   0.60600597
9106.00   0.59821141
9108.00   0.59847850
9110.00   0.60570270
9112.00   0.60937256
9114.00   0.60451686
9116.00   0.59913772
9118.00   0.60745734
9120.00   0.63185674
9122.00   0.63114583
9124.00   0.60874987
9126.00   0.59307724
9128.00   0.58065838
9130.00   0.57407922
9132.00   0.58112794
9134.00   0.60081446
9136.00   0.60716474
9138.00   0.60363883
9140.00   0.60646355
9142.00   0.61635625
9144.00   0.62432069
9146.00   0.62462908
9148.00   0.62055820
9150.00   0.61954212
9152.00   0.61574072
9154.00   0.61989272
9156.00   0.63314885
9158.00   0.64475846
9160.00   0.65125042
9162.00   0.65567487
9164.00   0.66078132
9166.00   0.66519970
9168.00   0.67024404
9170.00   0.67618722
9172.00   0.68109262
9174.00   0.68452787
9176.00   0.68734056
9178.00   0.69048256
9180.00   0.69365233
9182.00   0.69626087
9184.00   0.69919783
9186.00   0.70031494
9188.00   0.69950980
9190.00   0.69759911
9192.00   0.69429809
9194.00   0.68929881
9196.00   0.69049269
9198.00   0.69672376
9200.00   0.70312643
9202.00   0.71354485
9204.00   0.72086483
9206.00   0.72134691
9208.00   0.71743250
9210.00   0.71209008
9212.00   0.69798577
9214.00   0.69632399
9216.00   0.70290446
9218.00   0.71219707
9220.00   0.72458541
9222.00   0.73871148
9224.00   0.74901253
9226.00   0.75701052
9228.00   0.76567841
9230.00   0.78229803
9232.00   0.78267515
9234.00   0.75702977
9236.00   0.72798598
9238.00   0.72156858
9240.00   0.72876078
9242.00   0.73111105
9244.00   0.73785210
9246.00   0.73890394
9248.00   0.73150384
9250.00   0.72596657
9252.00   0.73141390
9254.00   0.74342358
9256.00   0.74170619
9258.00   0.72671241
9260.00   0.71997446
9262.00   0.71970034
9264.00   0.71676958
9266.00   0.70551991
9268.00   0.69141930
9270.00   0.68855184
9272.00   0.69879079
9274.00   0.69594598
9276.00   0.68250310
9278.00   0.67364007
9280.00   0.66933697
9282.00   0.67049879
9284.00   0.68522090
9286.00   0.71953547
9288.00   0.72394884
9290.00   0.70109481
9292.00   0.68997926
9294.00   0.68907315
9296.00   0.69401741
9298.00   0.70513326
9300.00   0.72338253
9302.00   0.73607522
9304.00   0.75367773
9306.00   0.75629622
9308.00   0.74174595
9310.00   0.72480363
9312.00   0.71424353
9314.00   0.70488513
9316.00   0.68770522
9318.00   0.65497309
9320.00   0.64319670
9322.00   0.64994645
9324.00   0.65486914
9326.00   0.65059924
9328.00   0.64468682
9330.00   0.64823496
9332.00   0.66324520
9334.00   0.66398567
9336.00   0.65208662
9338.00   0.64557153
9340.00   0.64743364
9342.00   0.65125161
9344.00   0.65142894
9346.00   0.65152204
9348.00   0.64376187
9350.00   0.62625366
9352.00   0.61249399
9354.00   0.59403634
9356.00   0.58630157
9358.00   0.60941285
9360.00   0.65647024
9362.00   0.66390508
9364.00   0.64316374
9366.00   0.62709093
9368.00   0.60269773
9370.00   0.58455640
9372.00   0.58387268
9374.00   0.59153706
9376.00   0.58068991
9378.00   0.54349023
9380.00   0.54044116
9382.00   0.56839478
9384.00   0.58638048
9386.00   0.58383495
9388.00   0.57390743
9390.00   0.57001466
9392.00   0.56394696
9394.00   0.56943715
9396.00   0.59287500
9398.00   0.60265857
9400.00   0.59542006
9402.00   0.58215714
9404.00   0.56936544
9406.00   0.55043536
9408.00   0.55738664
9410.00   0.60095114
9412.00   0.61458671
9414.00   0.59611034
9416.00   0.57717854
9418.00   0.57808912
9420.00   0.58826804
9422.00   0.58866674
9424.00   0.58226907
9426.00   0.58106095
9428.00   0.57519346
9430.00   0.58273095
9432.00   0.62073618
9434.00   0.67004883
9436.00   0.67505974
9438.00   0.64504516
9440.00   0.62352824
9442.00   0.58063972
9444.00   0.56418449
9446.00   0.59168524
9448.00   0.63237417
9450.00   0.64404225
9452.00   0.64143831
9454.00   0.63863039
9456.00   0.62145030
9458.00   0.61935985
9460.00   0.64241129
9462.00   0.66175032
9464.00   0.64883929
9466.00   0.61390007
9468.00   0.59649771
9470.00   0.58040720
9472.00   0.57525659
9474.00   0.59070301
9476.00   0.59786266
9478.00   0.57540894
9480.00   0.53755677
9482.00   0.52908385
9484.00   0.53914994
9486.00   0.55063492
9488.00   0.57435846
9490.00   0.59389120
9492.00   0.60417300
9494.00   0.61037099
9496.00   0.61851388
9498.00   0.63076657
9500.00   0.62804931
9502.00   0.60933000
9504.00   0.59466517
9506.00   0.58562988
9508.00   0.57800448
9510.00   0.56792486
9512.00   0.55404252
9514.00   0.55705893
9516.00   0.58047426
9518.00   0.59283161
9520.00   0.59482449
9522.00   0.59497780
9524.00   0.59713346
9526.00   0.59910709
9528.00   0.60921782
9530.00   0.63343954
9532.00   0.64307302
9534.00   0.64000219
9536.00   0.63641161
9538.00   0.63605052
9540.00   0.63690662
9542.00   0.64291805
9544.00   0.66767377
9546.00   0.65827841
9548.00   0.60697877
9550.00   0.57940078
9552.00   0.59342009
9554.00   0.62436497
9556.00   0.64286894
9558.00   0.66024458
9560.00   0.67835045
9562.00   0.71220213
9564.00   0.71527576
9566.00   0.67122561
9568.00   0.62179255
9570.00   0.61171502
9572.00   0.62582558
9574.00   0.61903399
9576.00   0.60092741
9578.00   0.58802235
9580.00   0.57675546
9582.00   0.56880218
9584.00   0.56369162
9586.00   0.56183916
9588.00   0.57772738
9590.00   0.62962443
9592.00   0.64021641
9594.00   0.61549348
9596.00   0.59287542
9598.00   0.58204675
9600.00   0.57654417
9602.00   0.58120489
9604.00   0.60779279
9606.00   0.60340738
9608.00   0.56552261
9610.00   0.54721451
9612.00   0.55886835
9614.00   0.58158571
9616.00   0.59784353
9618.00   0.61971951
9620.00   0.61897045
9622.00   0.58670408
9624.00   0.57734197
9626.00   0.59712023
9628.00   0.61854756
9630.00   0.62129575
9632.00   0.61507994
9634.00   0.59803855
9636.00   0.55327237
9638.00   0.53707665
9640.00   0.54287165
9642.00   0.55789673
9644.00   0.58116633
9646.00   0.61178172
9648.00   0.62500232
9650.00   0.63714081
9652.00   0.62308526
9654.00   0.57168120
9656.00   0.53322744
9658.00   0.51585531
9660.00   0.51395774
9662.00   0.53951389
9664.00   0.61312878
9666.00   0.62379760
9668.00   0.58266968
9670.00   0.55721641
9672.00   0.54764616
9674.00   0.54833370
9676.00   0.56545854
9678.00   0.60307902
9680.00   0.61157072
9682.00   0.60512644
9684.00   0.58958662
9686.00   0.54826093
9688.00   0.51839161
9690.00   0.53397787
9692.00   0.57928401
9694.00   0.59510958
9696.00   0.60806495
9698.00   0.59760076
9700.00   0.54667282
9702.00   0.51238877
9704.00   0.52310497
9706.00   0.55589265
9708.00   0.56994361
9710.00   0.58920026
9712.00   0.58149689
9714.00   0.54647171
9716.00   0.51215279
9718.00   0.47676986
9720.00   0.44561589
9722.00   0.43785679
9724.00   0.44775331
9726.00   0.46530363
9728.00   0.51002526
9730.00   0.53277314
9732.00   0.52968121
9734.00   0.51764005
9736.00   0.50789380
9738.00   0.49360895
9740.00   0.49272966
9742.00   0.50696349
9744.00   0.51211041
9746.00   0.51071298
9748.00   0.50736326
9750.00   0.50272954
9752.00   0.49665374
9754.00   0.49790198
9756.00   0.51105684
9758.00   0.51060516
9760.00   0.49693525
9762.00   0.48723522
9764.00   0.48624676
9766.00   0.49022529
9768.00   0.49900618
9770.00   0.52314204
9772.00   0.52059829
9774.00   0.48842055
9776.00   0.47193173
9778.00   0.47454214
9780.00   0.48930237
9782.00   0.51748538
9784.00   0.56662315
9786.00   0.58705443
9788.00   0.60232127
9790.00   0.58887130
9792.00   0.52872562
9794.00   0.46920285
9796.00   0.45091304
9798.00   0.45563352
9800.00   0.46133339
9802.00   0.48513851
9804.00   0.49578652
9806.00   0.50257653
9808.00   0.49894440
9810.00   0.47622594
9812.00   0.44183031
9814.00   0.42687103
9816.00   0.41744685
9818.00   0.42263040
9820.00   0.44805863
9822.00   0.47083288
9824.00   0.48704755
9826.00   0.50012785
9828.00   0.50908303
9830.00   0.51641101
9832.00   0.51251030
9834.00   0.48845717
9836.00   0.47934180
9838.00   0.49105161
9840.00   0.50786644
9842.00   0.51653337
9844.00   0.52520657
9846.00   0.51507777
9848.00   0.47811040
9850.00   0.45852807
9852.00   0.44982851
9854.00   0.45098940
9856.00   0.46561009
9858.00   0.49207431
9860.00   0.51073188
9862.00   0.53019243
9864.00   0.54446745
9866.00   0.55211556
9868.00   0.56077200
9870.00   0.57552040
9872.00   0.59138304
9874.00   0.59553319
9876.00   0.59380651
9878.00   0.58220881
9880.00   0.54413980
9882.00   0.53001547
9884.00   0.55588561
9886.00   0.59543425
9888.00   0.61604285
9890.00   0.63880795
9892.00   0.62184155
9894.00   0.55594343
9896.00   0.50860643
9898.00   0.47199202
9900.00   0.44985884
9902.00   0.45688155
9904.00   0.49102381
9906.00   0.49825838
9908.00   0.49495748
9910.00   0.48614883
9912.00   0.45715821
9914.00   0.44191834
9916.00   0.47045839
9918.00   0.52332264
9920.00   0.52193171
9922.00   0.46337807
9924.00   0.45033148
9926.00   0.46106482
9928.00   0.47851896
9930.00   0.50573415
9932.00   0.53533590
9934.00   0.53583729
9936.00   0.50699008
9938.00   0.49947464
9940.00   0.50324649
9942.00   0.50261790
9944.00   0.48883173
9946.00   0.47959355
9948.00   0.50016922
9950.00   0.54577553
9952.00   0.57808262
9954.00   0.62516981
9956.00   0.63845187
9958.00   0.61733061
9960.00   0.57766956
9962.00   0.52072114
9964.00   0.44241107
9966.00   0.41991732
9968.00   0.45183554
9970.00   0.45775890
9972.00   0.43949920
9974.00   0.43829530
9976.00   0.48531085
9978.00   0.55420393
9980.00   0.55922627
9982.00   0.50495797
9984.00   0.48282966
9986.00   0.45736304
9988.00   0.45199811
9990.00   0.48018068
9992.00   0.52183557
9994.00   0.54106808
9996.00   0.55036324
9998.00   0.55767608
10000.00   0.55665004
10002.00   0.55882180
10004.00   0.56199372
10006.00   0.56933182
10008.00   0.58882540
10010.00   0.62126446
10012.00   0.62956029
10014.00   0.62714505
10016.00   0.60994589
10018.00   0.55396819
10020.00   0.51850164
10022.00   0.55506128
10024.00   0.63675565
10026.00   0.65816224
10028.00   0.65681440
10030.00   0.62972647
10032.00   0.54432404
10034.00   0.48878893
10036.00   0.51007694
10038.00   0.56292933
10040.00   0.55143970
10042.00   0.47341898
10044.00   0.47307509
10046.00   0.53080356
10048.00   0.57879221
10050.00   0.60880631
10052.00   0.63374668
10054.00   0.66275984
10056.00   0.70453703
10058.00   0.68973792
10060.00   0.60839224
10062.00   0.55718744
10064.00   0.53755951
10066.00   0.52469093
10068.00   0.49767792
10070.00   0.46197096
10072.00   0.47340167
10074.00   0.54216695
10076.00   0.57600594
10078.00   0.58576465
10080.00   0.59023762
10082.00   0.60014701
10084.00   0.60842067
10086.00   0.59450638
10088.00   0.54868120
10090.00   0.52816397
10092.00   0.51489407
10094.00   0.51444691
10096.00   0.53835636
10098.00   0.56967032
10100.00   0.56265897
10102.00   0.50608879
10104.00   0.52282012
10106.00   0.62634230
10108.00   0.66747636
10110.00   0.61854661
10112.00   0.54305804
10114.00   0.50084984
10116.00   0.45992380
10118.00   0.46506003
10120.00   0.53650326
10122.00   0.56697971
10124.00   0.55589652
10126.00   0.53932995
10128.00   0.53970236
10130.00   0.54615021
10132.00   0.55191368
10134.00   0.57352459
10136.00   0.56466067
10138.00   0.51831728
10140.00   0.48017126
10142.00   0.46929747
10144.00   0.47265413
10146.00   0.48021746
10148.00   0.50351048
10150.00   0.51484567
10152.00   0.52230901
10154.00   0.52628976
10156.00   0.52697235
10158.00   0.52407378
10160.00   0.51170892
10162.00   0.46419302
10164.00   0.51898843
10166.00   0.70916790
10168.00   0.80813789
10170.00   0.81124145
10172.00   0.76241213
10174.00   0.66917115
10176.00   0.50733119
10178.00   0.47216222
10180.00   0.55059540
10182.00   0.58131611
10184.00   0.59886509
10186.00   0.58765668
10188.00   0.50724328
10190.00   0.38139656
10192.00   0.39817899
10194.00   0.59123707
10196.00   0.63114333
10198.00   0.55556822
10200.00   0.49190104
10202.00   0.47878528
10204.00   0.48596787
10206.00   0.49932694
10208.00   0.53698170
10210.00   0.54899746
10212.00   0.55203837
10214.00   0.54159600
10216.00   0.50699341
10218.00   0.46839842
10220.00   0.45303214
10222.00   0.43505654
10224.00   0.49985665
10226.00   0.69663936
10228.00   0.79279482
10230.00   0.77674466
10232.00   0.73240036
10234.00   0.71721071
10236.00   0.70386797
10238.00   0.69516271
10240.00   0.72312033
10242.00   0.68182939
10244.00   0.55549037
10246.00   0.43922317
10248.00   0.37039083
10250.00   0.32928294
10252.00   0.34996277
10254.00   0.47605878
10256.00   0.51927876
10258.00   0.53283936
10260.00   0.51877677
10262.00   0.45274189
10264.00   0.37393004
10266.00   0.38853315
10268.00   0.51193625
10270.00   0.49491715
10272.00   0.32644355
10274.00   0.26394191
10276.00   0.34776121
10278.00   0.47565183
10280.00   0.55946958
10282.00   0.64985794
10284.00   0.65349835
10286.00   0.57130963
10288.00   0.49441311
10290.00   0.37977320
10292.00   0.29692754
10294.00   0.31880680
10296.00   0.41228363
10298.00   0.41835427
10300.00   0.33800995
10302.00   0.34666583
10304.00   0.43636960
10306.00   0.51912493
10308.00   0.57278728
10310.00   0.60717767
10312.00   0.57879639
10314.00   0.46743858
10316.00   0.40383434
10318.00   0.32725614
10320.00   0.29887140
10322.00   0.34889990
10324.00   0.42826325
10326.00   0.45899945
10328.00   0.46839002
10330.00   0.47715664
10332.00   0.47306255
10334.00   0.47334376
10336.00   0.47772282
10338.00   0.48378548
10340.00   0.49633101
10342.00   0.51941812
10344.00   0.48856258
10346.00   0.37692782
10348.00   0.33711031
10350.00   0.34923092
10352.00   0.39361107
10354.00   0.47914848
10356.00   0.59838861
10358.00   0.64178801
10360.00   0.63155645
10362.00   0.62202030
10364.00   0.58954293
10366.00   0.55873263
10368.00   0.54365015
10370.00   0.52855235
10372.00   0.47770625
10374.00   0.36840549
10376.00   0.34611216
10378.00   0.39993942
10380.00   0.43388805
10382.00   0.42931306
10384.00   0.42310697
10386.00   0.45612663
10388.00   0.52077085
10390.00   0.55856740
10392.00   0.60129434
10394.00   0.60879344
10396.00   0.58825791
10398.00   0.53432447
10400.00   0.41527760
10402.00   0.23347941
10404.00   0.22101365
10406.00   0.33178419
10408.00   0.46156937
10410.00   0.70883906
10412.00   0.88027990
10414.00   0.86669892
10416.00   0.74282426
10418.00   0.63927639
10420.00   0.45457658
10422.00   0.37280345
10424.00   0.35286561
10426.00   0.35921052
10428.00   0.38331023
10430.00   0.43460023
10432.00   0.52862930
10434.00   0.71185565
10436.00   0.74481249
10438.00   0.64088291
10440.00   0.57901090
10442.00   0.58691680
10444.00   0.58896130
10446.00   0.49576902
10448.00   0.31178033
10450.00   0.31226170
10452.00   0.51458311
10454.00   0.58449298
10456.00   0.51414078
10458.00   0.44720227
10460.00   0.48101699
10462.00   0.56694645
10464.00   0.59226471
10466.00   0.58066761
10468.00   0.58226264
10470.00   0.60911924
10472.00   0.59726042
10474.00   0.50115556
10476.00   0.36640421
10478.00   0.31558502
10480.00   0.29870716
10482.00   0.33254784
10484.00   0.47285908
10486.00   0.54741389
10488.00   0.51468909
10490.00   0.44064897
10492.00   0.39418554
10494.00   0.32645705
10496.00   0.34890690
10498.00   0.48182297
10500.00   0.55821061
10502.00   0.58614409
10504.00   0.58129311
10506.00   0.53497279
10508.00   0.44234249
10510.00   0.40547699
10512.00   0.39323547
10514.00   0.39675480
10516.00   0.44089070
10518.00   0.46831471
10520.00   0.43473241
10522.00   0.36800525
10524.00   0.35837400
10526.00   0.39349669
10528.00   0.40784797
10530.00   0.41376376
10532.00   0.42633033
10534.00   0.46237099
10536.00   0.49908650
10538.00   0.47598100
10540.00   0.38380575
10542.00   0.35636270
10544.00   0.35362849
10546.00   0.37334713
10548.00   0.43131739
10550.00   0.49652207
10552.00   0.52289182
10554.00   0.52823251
10556.00   0.52332008
10558.00   0.49528646
10560.00   0.47310394
10562.00   0.45646968
10564.00   0.43740970
10566.00   0.41236511
10568.00   0.38351172
10570.00   0.34087709
10572.00   0.22298796
10574.00   0.24016558
10576.00   0.43906763
10578.00   0.57981771
10580.00   0.53349459
10582.00   0.39488450
10584.00   0.34720379
10586.00   0.31252903
10588.00   0.33006340
10590.00   0.43484575
10592.00   0.49721435
10594.00   0.47395915
10596.00   0.42359772
10598.00   0.42962876
10600.00   0.47325301
10602.00   0.48745298
10604.00   0.47710216
10606.00   0.48949331
10608.00   0.53966153
10610.00   0.59003198
10612.00   0.60094225
10614.00   0.58740062
10616.00   0.57111907
10618.00   0.53323555
10620.00   0.51065862
10622.00   0.50907707
10624.00   0.50007921
10626.00   0.45524183
10628.00   0.38946477
10630.00   0.39101645
10632.00   0.47605261
10634.00   0.48999172
10636.00   0.44907561
10638.00   0.41364774
10640.00   0.40204051
10642.00   0.40116999
10644.00   0.41011092
10646.00   0.44686046
10648.00   0.44436121
10650.00   0.40111464
10652.00   0.37893921
10654.00   0.39220154
10656.00   0.41632366
10658.00   0.42395237
10660.00   0.42592993
10662.00   0.42429015
10664.00   0.42076224
10666.00   0.40815273
10668.00   0.37913582
10670.00   0.35159659
10672.00   0.34120291
10674.00   0.34028462
10676.00   0.35376561
10678.00   0.40116242
10680.00   0.41478169
10682.00   0.40151107
10684.00   0.37788177
10686.00   0.34462422
10688.00   0.30321100
10690.00   0.29276079
10692.00   0.30768496
10694.00   0.31995881
10696.00   0.34501669
10698.00   0.36219779
10700.00   0.36500227
10702.00   0.36018875
10704.00   0.35475767
10706.00   0.34034568
10708.00   0.34112570
10710.00   0.35724115
10712.00   0.36665812
10714.00   0.36446723
10716.00   0.36172336
10718.00   0.36993188
10720.00   0.38407651
10722.00   0.40488181
10724.00   0.45449081
10726.00   0.46366894
10728.00   0.42324707
10730.00   0.37705395
10732.00   0.35441136
10734.00   0.34079424
10736.00   0.33647877
10738.00   0.33945608
10740.00   0.35596269
10742.00   0.39868924
10744.00   0.43110567
10746.00   0.43978819
10748.00   0.43290141
10750.00   0.40645126
10752.00   0.32968906
10754.00   0.31622168
10756.00   0.35485280
10758.00   0.38244936
10760.00   0.38763598
10762.00   0.38420832
10764.00   0.37785175
10766.00   0.35644615
10768.00   0.36840782
10770.00   0.41538230
10772.00   0.44738764
10774.00   0.47351873
10776.00   0.48193923
10778.00   0.44495675
10780.00   0.36312306
10782.00   0.34792164
10784.00   0.37265480
10786.00   0.40585902
10788.00   0.47203174
10790.00   0.52502251
10792.00   0.53597271
10794.00   0.52028137
10796.00   0.47995484
10798.00   0.38128245
10800.00   0.33370039
10802.00   0.30220154
10804.00   0.30434814
10806.00   0.37066242
10808.00   0.46212617
10810.00   0.45963493
10812.00   0.36722562
10814.00   0.34415886
10816.00   0.35710478
10818.00   0.36356509
10820.00   0.34694061
10822.00   0.33818331
10824.00   0.38633212
10826.00   0.49668512
10828.00   0.51903284
10830.00   0.47453779
10832.00   0.44418538
10834.00   0.41432709
10836.00   0.39541444
10838.00   0.41015282
10840.00   0.45278651
10842.00   0.44751266
10844.00   0.40704143
10846.00   0.37236983
10848.00   0.30941111
10850.00   0.28264093
