# Converted from sn2016coj-20160614.198-uv.ms.fits
# wl (A)     fl (flam)   er (flam, opt)
3498.000000    15.333665    0.408612
3500.000000    14.456838    0.409431
3502.000000    15.365644    0.415086
3504.000000    15.415206    0.410887
3506.000000    16.590881    0.418849
3508.000000    15.691807    0.412458
3510.000000    15.800767    0.407094
3512.000000    14.848027    0.398234
3514.000000    16.146730    0.405077
3516.000000    15.579587    0.409051
3518.000000    15.864985    0.413038
3520.000000    16.406511    0.408745
3522.000000    16.423054    0.399475
3524.000000    16.225670    0.397457
3526.000000    16.471899    0.399885
3528.000000    16.454304    0.412087
3530.000000    17.614361    0.416139
3532.000000    18.512320    0.419422
3534.000000    18.068075    0.420251
3536.000000    18.120516    0.421938
3538.000000    19.349499    0.428217
3540.000000    19.664133    0.433308
3542.000000    19.323683    0.429885
3544.000000    19.266968    0.431892
3546.000000    19.216999    0.431563
3548.000000    18.682226    0.427805
3550.000000    19.574619    0.429990
3552.000000    19.930273    0.426358
3554.000000    19.740229    0.424288
3556.000000    19.753012    0.425152
3558.000000    20.247959    0.426329
3560.000000    19.987614    0.425997
3562.000000    20.115011    0.424290
3564.000000    20.911570    0.421145
3566.000000    20.727325    0.412223
3568.000000    20.832472    0.410899
3570.000000    20.770195    0.408517
3572.000000    21.128014    0.416381
3574.000000    20.798752    0.416965
3576.000000    21.042385    0.415824
3578.000000    20.119114    0.403715
3580.000000    20.523775    0.400110
3582.000000    21.084276    0.400091
3584.000000    21.083532    0.393561
3586.000000    20.199867    0.386836
3588.000000    20.074087    0.393202
3590.000000    20.270613    0.401521
3592.000000    19.969051    0.399815
3594.000000    20.034420    0.400791
3596.000000    18.811134    0.395790
3598.000000    19.247850    0.398477
3600.000000    19.074812    0.394520
3602.000000    20.244122    0.392550
3604.000000    19.488846    0.383200
3606.000000    18.949020    0.380175
3608.000000    19.355356    0.379856
3610.000000    19.703773    0.385085
3612.000000    19.577415    0.386875
3614.000000    20.136057    0.389615
3616.000000    20.088629    0.384718
3618.000000    21.122229    0.382796
3620.000000    21.222767    0.384360
3622.000000    21.690569    0.391007
3624.000000    21.567717    0.391646
3626.000000    22.828697    0.404581
3628.000000    23.297695    0.405170
3630.000000    22.997366    0.394170
3632.000000    24.705132    0.398533
3634.000000    24.961977    0.403220
3636.000000    25.463757    0.405903
3638.000000    25.205265    0.410052
3640.000000    26.049038    0.414300
3642.000000    26.894701    0.415945
3644.000000    28.640860    0.419298
3646.000000    28.113745    0.417420
3648.000000    29.108309    0.435813
3650.000000    29.971888    0.447231
3652.000000    29.856976    0.440525
3654.000000    31.122517    0.441098
3656.000000    30.184181    0.432147
3658.000000    30.461123    0.426937
3660.000000    31.033756    0.431687
3662.000000    31.039921    0.434164
3664.000000    31.370567    0.430008
3666.000000    32.033432    0.424004
3668.000000    32.475124    0.422276
3670.000000    31.434706    0.416689
3672.000000    31.042299    0.415290
3674.000000    30.407616    0.411216
3676.000000    30.298910    0.404879
3678.000000    28.899569    0.393228
3680.000000    28.142622    0.389117
3682.000000    27.124325    0.383798
3684.000000    26.699394    0.379947
3686.000000    25.135572    0.369125
3688.000000    25.469637    0.368766
3690.000000    25.020025    0.372780
3692.000000    23.345152    0.364842
3694.000000    23.183205    0.359192
3696.000000    22.681452    0.357285
3698.000000    22.209385    0.357334
3700.000000    22.338779    0.355580
3702.000000    21.403360    0.347844
3704.000000    22.035189    0.340966
3706.000000    22.331940    0.341129
3708.000000    22.170784    0.341218
3710.000000    22.025848    0.345845
3712.000000    21.284641    0.346853
3714.000000    21.217758    0.345539
3716.000000    20.566750    0.338025
3718.000000    20.880514    0.330059
3720.000000    20.963470    0.321679
3722.000000    20.353848    0.322467
3724.000000    20.558607    0.328555
3726.000000    20.498165    0.328721
3728.000000    19.830896    0.325447
3730.000000    19.708921    0.322017
3732.000000    19.811867    0.313344
3734.000000    20.747049    0.309850
3736.000000    19.509928    0.304796
3738.000000    19.231977    0.311963
3740.000000    18.643564    0.314427
3742.000000    19.251261    0.313382
3744.000000    18.895763    0.303233
3746.000000    18.886421    0.297577
3748.000000    18.974483    0.294783
3750.000000    18.225000    0.294395
3752.000000    17.760389    0.299854
3754.000000    16.996153    0.298447
3756.000000    17.054611    0.293808
3758.000000    17.543518    0.289274
3760.000000    17.597685    0.289819
3762.000000    17.043388    0.287819
3764.000000    16.588491    0.284493
3766.000000    16.799547    0.284535
3768.000000    16.267269    0.281785
3770.000000    16.096090    0.284447
3772.000000    15.714066    0.283885
3774.000000    15.904313    0.284927
3776.000000    15.669331    0.282055
3778.000000    15.594785    0.281477
3780.000000    15.446913    0.282129
3782.000000    15.782660    0.283795
3784.000000    15.351112    0.279302
3786.000000    15.417850    0.274436
3788.000000    15.359975    0.272068
3790.000000    15.156570    0.271957
3792.000000    15.422755    0.271534
3794.000000    15.536504    0.270142
3796.000000    15.915996    0.267497
3798.000000    15.776919    0.266576
3800.000000    15.292746    0.268549
3802.000000    15.875778    0.274404
3804.000000    15.551155    0.270465
3806.000000    15.423833    0.266433
3808.000000    15.803393    0.265865
3810.000000    15.987677    0.268116
3812.000000    16.007215    0.263110
3814.000000    16.183619    0.256932
3816.000000    16.654884    0.258858
3818.000000    17.013369    0.259152
3820.000000    18.011990    0.262869
3822.000000    17.564394    0.260390
3824.000000    18.934828    0.263548
3826.000000    18.385466    0.260192
3828.000000    18.630997    0.262941
3830.000000    19.567467    0.265170
3832.000000    20.137341    0.264707
3834.000000    19.752956    0.262309
3836.000000    20.656971    0.265820
3838.000000    20.915014    0.265497
3840.000000    21.001583    0.267114
3842.000000    21.524763    0.273416
3844.000000    21.433907    0.275401
3846.000000    21.879145    0.277395
3848.000000    22.699146    0.277524
3850.000000    22.999273    0.277174
3852.000000    23.617838    0.280152
3854.000000    24.706324    0.282089
3856.000000    24.804718    0.281013
3858.000000    24.995457    0.279063
3860.000000    25.876846    0.284882
3862.000000    26.150972    0.290711
3864.000000    27.248512    0.294921
3866.000000    27.781919    0.295664
3868.000000    28.772856    0.297041
3870.000000    28.953402    0.293574
3872.000000    29.666809    0.298276
3874.000000    30.337799    0.304452
3876.000000    31.286772    0.304850
3878.000000    31.614183    0.303387
3880.000000    32.370399    0.305641
3882.000000    33.547386    0.309803
3884.000000    34.142826    0.310429
3886.000000    35.060162    0.311635
3888.000000    34.670666    0.310532
3890.000000    35.517765    0.314508
3892.000000    36.270592    0.318274
3894.000000    36.783298    0.320047
3896.000000    36.936245    0.319497
3898.000000    37.987457    0.322625
3900.000000    38.289803    0.322805
3902.000000    38.474098    0.322568
3904.000000    38.819706    0.323293
3906.000000    39.700356    0.329756
3908.000000    40.734196    0.335540
3910.000000    40.518589    0.337301
3912.000000    41.498901    0.340867
3914.000000    42.015911    0.338986
3916.000000    42.536064    0.333705
3918.000000    42.881863    0.330726
3920.000000    43.333401    0.329716
3922.000000    43.419968    0.328897
3924.000000    44.287346    0.329943
3926.000000    44.234188    0.327100
3928.000000    44.689598    0.323898
3930.000000    43.365807    0.317092
3932.000000    42.120441    0.312663
3934.000000    43.579498    0.315881
3936.000000    44.739464    0.318812
3938.000000    44.903385    0.322422
3940.000000    44.894051    0.323554
3942.000000    44.045998    0.320880
3944.000000    44.392345    0.322787
3946.000000    43.384224    0.320159
3948.000000    43.298103    0.319578
3950.000000    42.380226    0.316000
3952.000000    41.403351    0.312232
3954.000000    40.866829    0.309755
3956.000000    40.516308    0.308900
3958.000000    39.981430    0.307729
3960.000000    39.843494    0.304724
3962.000000    38.943043    0.298338
3964.000000    38.458790    0.293344
3966.000000    36.410809    0.283956
3968.000000    36.086227    0.281097
3970.000000    35.756760    0.282068
3972.000000    35.554375    0.285145
3974.000000    35.208618    0.285693
3976.000000    35.044529    0.286350
3978.000000    34.111591    0.285628
3980.000000    33.370152    0.283251
3982.000000    32.557110    0.278830
3984.000000    32.487328    0.277522
3986.000000    31.810143    0.275892
3988.000000    31.309666    0.276247
3990.000000    31.092161    0.277073
3992.000000    31.396063    0.278038
3994.000000    30.454184    0.276259
3996.000000    30.419191    0.276546
3998.000000    30.688812    0.276241
4000.000000    30.261982    0.274637
4002.000000    30.368896    0.274426
4004.000000    29.664980    0.270340
4006.000000    30.459347    0.271155
4008.000000    29.932030    0.272134
4010.000000    30.082024    0.273193
4012.000000    29.881165    0.271634
4014.000000    29.981731    0.271678
4016.000000    29.954161    0.271123
4018.000000    30.246426    0.274454
4020.000000    30.769453    0.277722
4022.000000    31.521399    0.279065
4024.000000    31.284773    0.277831
4026.000000    32.005096    0.277932
4028.000000    32.262402    0.275761
4030.000000    32.473312    0.274392
4032.000000    32.513145    0.272446
4034.000000    32.122147    0.271482
4036.000000    33.029934    0.274863
4038.000000    32.950394    0.274833
4040.000000    33.058971    0.274012
4042.000000    33.141273    0.275171
4044.000000    33.274216    0.288693
4046.000000    33.167690    0.297663
4048.000000    33.167439    0.288478
4050.000000    32.734665    0.272991
4052.000000    33.117313    0.271335
4054.000000    33.296333    0.271065
4056.000000    33.886669    0.271138
4058.000000    33.824074    0.270026
4060.000000    33.903996    0.269241
4062.000000    34.192184    0.267697
4064.000000    35.001438    0.268940
4066.000000    34.933952    0.271448
4068.000000    35.492584    0.273290
4070.000000    35.571457    0.273246
4072.000000    35.732780    0.272094
4074.000000    35.888508    0.273812
4076.000000    35.905941    0.274783
4078.000000    36.670204    0.277594
4080.000000    36.781738    0.278058
4082.000000    36.338650    0.275819
4084.000000    36.405163    0.274566
4086.000000    36.279034    0.275100
4088.000000    35.966900    0.274678
4090.000000    36.637997    0.274571
4092.000000    36.294346    0.271764
4094.000000    36.136097    0.270701
4096.000000    36.409378    0.270076
4098.000000    36.625717    0.268946
4100.000000    36.750820    0.266316
4102.000000    36.678020    0.267118
4104.000000    36.149677    0.267086
4106.000000    36.894154    0.269659
4108.000000    37.112484    0.269683
4110.000000    36.711155    0.269160
4112.000000    37.248318    0.270081
4114.000000    37.334835    0.270506
4116.000000    38.121799    0.271454
4118.000000    38.278721    0.270779
4120.000000    38.242512    0.269487
4122.000000    38.289494    0.270147
4124.000000    38.548615    0.270102
4126.000000    38.609982    0.269529
4128.000000    38.649025    0.269120
4130.000000    39.100094    0.269843
4132.000000    39.213181    0.269173
4134.000000    39.415718    0.269792
4136.000000    40.005436    0.271034
4138.000000    39.539883    0.271248
4140.000000    39.359913    0.269677
4142.000000    39.509251    0.267089
4144.000000    39.507553    0.265765
4146.000000    39.660938    0.267152
4148.000000    39.579731    0.266507
4150.000000    39.698494    0.269321
4152.000000    39.665596    0.266901
4154.000000    39.612408    0.265653
4156.000000    39.814865    0.265025
4158.000000    39.712067    0.264952
4160.000000    38.976933    0.263554
4162.000000    38.833374    0.263693
4164.000000    39.043678    0.264797
4166.000000    38.351292    0.261563
4168.000000    39.036205    0.261043
4170.000000    38.252403    0.258123
4172.000000    38.105930    0.255750
4174.000000    37.975834    0.255177
4176.000000    38.440559    0.256972
4178.000000    38.925098    0.257497
4180.000000    39.211388    0.257568
4182.000000    38.753002    0.256603
4184.000000    38.603806    0.255509
4186.000000    38.416691    0.254299
4188.000000    38.387810    0.254006
4190.000000    38.508148    0.254787
4192.000000    38.633137    0.254908
4194.000000    38.797298    0.254471
4196.000000    38.667328    0.252697
4198.000000    38.728157    0.251969
4200.000000    39.179089    0.252855
4202.000000    39.612911    0.253804
4204.000000    39.679146    0.254669
4206.000000    39.479435    0.254745
4208.000000    39.426895    0.255164
4210.000000    39.011124    0.254876
4212.000000    39.098572    0.254023
4214.000000    39.031250    0.252193
4216.000000    38.421562    0.249814
4218.000000    38.280212    0.249537
4220.000000    37.574741    0.247915
4222.000000    37.134972    0.246264
4224.000000    37.389412    0.243987
4226.000000    37.310143    0.242711
4228.000000    36.975330    0.243389
4230.000000    36.416103    0.244250
4232.000000    36.227150    0.243195
4234.000000    36.121002    0.241717
4236.000000    35.602871    0.239643
4238.000000    35.572319    0.239509
4240.000000    35.651005    0.239006
4242.000000    35.480373    0.237734
4244.000000    34.942554    0.238691
4246.000000    34.899658    0.239005
4248.000000    34.771145    0.236689
4250.000000    34.438408    0.234425
4252.000000    33.997913    0.233211
4254.000000    34.489204    0.234059
4256.000000    34.206100    0.233068
4258.000000    34.575676    0.232350
4260.000000    33.685684    0.230325
4262.000000    34.133717    0.231946
4264.000000    34.355335    0.233514
4266.000000    33.666462    0.230586
4268.000000    33.398155    0.227673
4270.000000    33.296204    0.226047
4272.000000    32.599514    0.223057
4274.000000    32.355427    0.223254
4276.000000    31.826176    0.223804
4278.000000    31.841726    0.223409
4280.000000    30.832220    0.220091
4282.000000    30.725470    0.219943
4284.000000    29.839113    0.216591
4286.000000    30.649290    0.216594
4288.000000    30.219324    0.214310
4290.000000    29.443182    0.212229
4292.000000    28.976496    0.212201
4294.000000    29.237240    0.213073
4296.000000    28.437113    0.209748
4298.000000    28.814199    0.208035
4300.000000    28.306004    0.205655
4302.000000    27.575615    0.203359
4304.000000    27.427046    0.203218
4306.000000    27.274651    0.201641
4308.000000    27.049316    0.200107
4310.000000    26.858702    0.200801
4312.000000    26.336994    0.202874
4314.000000    26.125189    0.205613
4316.000000    25.558725    0.204140
4318.000000    25.264858    0.204087
4320.000000    24.959404    0.202547
4322.000000    24.635780    0.199022
4324.000000    24.527241    0.196384
4326.000000    24.697561    0.196983
4328.000000    24.441418    0.198125
4330.000000    23.941023    0.198071
4332.000000    24.194450    0.198449
4334.000000    24.252880    0.199211
4336.000000    24.165646    0.197490
4338.000000    23.674406    0.194233
4340.000000    24.011730    0.194410
4342.000000    23.637623    0.194068
4344.000000    23.356836    0.195734
4346.000000    22.927982    0.196205
4348.000000    22.466867    0.195422
4350.000000    22.087114    0.193159
4352.000000    22.020988    0.191572
4354.000000    21.564892    0.199184
4356.000000    21.837887    0.225665
4358.000000    21.619730    0.236115
4360.000000    21.314486    0.217482
4362.000000    21.489126    0.199675
4364.000000    20.889933    0.192160
4366.000000    20.827921    0.190224
4368.000000    20.888826    0.188325
4370.000000    20.505501    0.187349
4372.000000    20.227816    0.186649
4374.000000    20.234486    0.185875
4376.000000    20.147846    0.184747
4378.000000    20.276651    0.185052
4380.000000    20.218037    0.182608
4382.000000    19.931742    0.179500
4384.000000    19.922466    0.178352
4386.000000    19.724092    0.178795
4388.000000    19.741018    0.178821
4390.000000    19.787212    0.178942
4392.000000    19.510851    0.178419
4394.000000    20.249746    0.180371
4396.000000    19.820583    0.179978
4398.000000    20.732887    0.182449
4400.000000    20.936554    0.183080
4402.000000    21.065947    0.182021
4404.000000    21.111216    0.181608
4406.000000    21.040337    0.182173
4408.000000    20.990688    0.183028
4410.000000    21.494308    0.185876
4412.000000    22.240095    0.188661
4414.000000    22.223379    0.187840
4416.000000    22.068760    0.187490
4418.000000    22.766087    0.189253
4420.000000    22.599665    0.188434
4422.000000    22.662533    0.188109
4424.000000    22.825861    0.187764
4426.000000    22.952606    0.188247
4428.000000    22.989134    0.188841
4430.000000    23.813696    0.190564
4432.000000    24.083847    0.191002
4434.000000    24.207846    0.190657
4436.000000    24.745594    0.191970
4438.000000    25.095970    0.193237
4440.000000    25.328711    0.193102
4442.000000    25.512255    0.192568
4444.000000    25.285517    0.193029
4446.000000    25.947302    0.194706
4448.000000    26.376015    0.194699
4450.000000    26.323736    0.194467
4452.000000    26.448353    0.194113
4454.000000    27.012482    0.194754
4456.000000    26.749174    0.193586
4458.000000    27.419495    0.195334
4460.000000    27.342367    0.195620
4462.000000    27.631573    0.196650
4464.000000    27.958994    0.197818
4466.000000    28.763826    0.199466
4468.000000    28.810673    0.199222
4470.000000    29.033670    0.199964
4472.000000    29.352003    0.201259
4474.000000    30.017029    0.202452
4476.000000    30.342615    0.202954
4478.000000    30.971786    0.203745
4480.000000    31.402176    0.203675
4482.000000    32.112988    0.205818
4484.000000    32.682587    0.207966
4486.000000    32.711113    0.209370
4488.000000    32.956657    0.209434
4490.000000    33.695801    0.210919
4492.000000    34.289616    0.212686
4494.000000    34.229206    0.212628
4496.000000    34.471386    0.213640
4498.000000    34.786045    0.214321
4500.000000    35.782688    0.216070
4502.000000    35.915157    0.216528
4504.000000    36.837936    0.218147
4506.000000    37.217930    0.218693
4508.000000    37.476646    0.219219
4510.000000    37.625454    0.220323
4512.000000    38.039120    0.219569
4514.000000    38.272022    0.220312
4516.000000    39.110714    0.221137
4518.000000    38.896076    0.220631
4520.000000    38.890430    0.221384
4522.000000    39.394268    0.221172
4524.000000    39.570621    0.220997
4526.000000    39.973549    0.221020
4528.000000    40.312206    0.221588
4530.000000    39.944546    0.220713
4532.000000    40.291359    0.221158
4534.000000    40.279823    0.220943
4536.000000    40.222607    0.221563
4538.000000    40.666176    0.222828
4540.000000    40.586498    0.222745
4542.000000    40.443909    0.222261
4544.000000    41.077374    0.222859
4546.000000    41.111485    0.222291
4548.000000    41.350323    0.221820
4550.000000    41.472595    0.222314
4552.000000    41.816635    0.222623
4554.000000    41.677044    0.222798
4556.000000    41.897217    0.223829
4558.000000    41.656971    0.223388
4560.000000    41.772949    0.223662
4562.000000    42.662640    0.224619
4564.000000    42.049530    0.223512
4566.000000    41.465424    0.221899
4568.000000    42.061169    0.222582
4570.000000    41.508404    0.221267
4572.000000    41.578827    0.221751
4574.000000    41.474377    0.221551
4576.000000    41.290058    0.220562
4578.000000    40.714592    0.218946
4580.000000    40.572914    0.218215
4582.000000    40.962570    0.217750
4584.000000    40.578415    0.217119
4586.000000    40.317661    0.216667
4588.000000    40.301170    0.216710
4590.000000    39.850418    0.215671
4592.000000    40.024059    0.215776
4594.000000    39.730522    0.214781
4596.000000    39.184898    0.213770
4598.000000    39.028168    0.212480
4600.000000    39.189907    0.212486
4602.000000    38.782982    0.211290
4604.000000    38.545116    0.211127
4606.000000    37.738853    0.209694
4608.000000    37.937683    0.210259
4610.000000    37.696564    0.209576
4612.000000    37.158356    0.208121
4614.000000    37.575840    0.208222
4616.000000    37.609978    0.207927
4618.000000    36.400970    0.206365
4620.000000    36.199810    0.205529
4622.000000    36.896969    0.206601
4624.000000    35.463512    0.203470
4626.000000    35.221088    0.202874
4628.000000    35.125271    0.202449
4630.000000    34.666008    0.201493
4632.000000    34.285725    0.200418
4634.000000    34.115322    0.199536
4636.000000    34.214306    0.199429
4638.000000    33.874794    0.198922
4640.000000    33.520210    0.197851
4642.000000    33.200657    0.197182
4644.000000    33.071949    0.196405
4646.000000    33.024818    0.196043
4648.000000    32.370865    0.194640
4650.000000    32.402920    0.195002
4652.000000    32.347290    0.194991
4654.000000    31.977215    0.194254
4656.000000    31.688787    0.193659
4658.000000    31.448889    0.193545
4660.000000    30.965628    0.192733
4662.000000    31.044043    0.192487
4664.000000    31.143858    0.191719
4666.000000    31.014702    0.191506
4668.000000    31.254826    0.191609
4670.000000    30.453356    0.190890
4672.000000    30.315443    0.190689
4674.000000    30.353262    0.190706
4676.000000    30.292725    0.190622
4678.000000    29.823959    0.188753
4680.000000    29.342302    0.187632
4682.000000    29.331244    0.187042
4684.000000    29.020485    0.186662
4686.000000    29.213608    0.186327
4688.000000    28.982773    0.185488
4690.000000    29.014462    0.185212
4692.000000    28.490517    0.184610
4694.000000    28.223694    0.184141
4696.000000    28.339981    0.183380
4698.000000    28.106304    0.182328
4700.000000    27.525463    0.180650
4702.000000    27.480330    0.180419
4704.000000    27.546663    0.180208
4706.000000    26.741762    0.178860
4708.000000    26.335352    0.178008
4710.000000    25.869200    0.176776
4712.000000    26.051077    0.176647
4714.000000    25.021395    0.174177
4716.000000    24.830326    0.174110
4718.000000    24.821251    0.173918
4720.000000    24.363153    0.172895
4722.000000    23.699148    0.171233
4724.000000    23.776361    0.171103
4726.000000    23.906628    0.171793
4728.000000    23.373119    0.170819
4730.000000    23.244688    0.170764
4732.000000    22.870346    0.169838
4734.000000    22.999485    0.170835
4736.000000    22.813377    0.170561
4738.000000    23.157133    0.171654
4740.000000    22.431541    0.171169
4742.000000    22.425701    0.171813
4744.000000    22.756090    0.171768
4746.000000    22.369566    0.168728
4748.000000    22.237947    0.167461
4750.000000    22.376289    0.167493
4752.000000    22.148235    0.166988
4754.000000    21.817612    0.165641
4756.000000    21.988184    0.166090
4758.000000    21.948908    0.165554
4760.000000    22.199787    0.165723
4762.000000    22.279316    0.165688
4764.000000    22.292788    0.165555
4766.000000    21.760597    0.164019
4768.000000    21.750275    0.164677
4770.000000    21.759306    0.163797
4772.000000    22.095459    0.165008
4774.000000    21.918777    0.164841
4776.000000    22.113516    0.165321
4778.000000    21.665598    0.164787
4780.000000    21.348396    0.164235
4782.000000    21.774916    0.164466
4784.000000    21.776749    0.163359
4786.000000    21.356966    0.162027
4788.000000    21.101727    0.161397
4790.000000    21.179060    0.161701
4792.000000    20.943321    0.162026
4794.000000    20.896469    0.161643
4796.000000    20.771921    0.160727
4798.000000    20.213356    0.159023
4800.000000    20.177786    0.158585
4802.000000    20.396683    0.158839
4804.000000    20.210051    0.158302
4806.000000    19.630169    0.157143
4808.000000    20.122301    0.158066
4810.000000    19.544371    0.156367
4812.000000    19.505190    0.156671
4814.000000    19.904408    0.157816
4816.000000    19.259838    0.156354
4818.000000    19.517927    0.157110
4820.000000    19.782581    0.157749
4822.000000    19.232719    0.156431
4824.000000    19.393169    0.156616
4826.000000    19.597078    0.156962
4828.000000    19.236506    0.156092
4830.000000    19.119484    0.155372
4832.000000    19.046869    0.155747
4834.000000    18.865025    0.155177
4836.000000    18.841431    0.155474
4838.000000    19.033772    0.156166
4840.000000    18.800156    0.154727
4842.000000    18.654512    0.154492
4844.000000    18.590511    0.154262
4846.000000    18.397816    0.153624
4848.000000    18.376066    0.153519
4850.000000    17.860458    0.152126
4852.000000    18.230274    0.152831
4854.000000    18.516275    0.152487
4856.000000    18.050852    0.150878
4858.000000    18.117496    0.150101
4860.000000    18.253267    0.149506
4862.000000    18.128090    0.149559
4864.000000    18.259132    0.150631
4866.000000    18.402357    0.151400
4868.000000    18.284739    0.151247
4870.000000    18.628040    0.151333
4872.000000    18.120335    0.150815
4874.000000    18.258741    0.151115
4876.000000    18.364695    0.151305
4878.000000    18.538481    0.151506
4880.000000    18.895470    0.152236
4882.000000    18.628834    0.151023
4884.000000    18.747091    0.150697
4886.000000    18.701641    0.149899
4888.000000    19.009846    0.150335
4890.000000    19.399729    0.151517
4892.000000    19.450647    0.152173
4894.000000    19.356388    0.152172
4896.000000    19.473494    0.152482
4898.000000    19.309093    0.152653
4900.000000    19.920563    0.153703
4902.000000    20.126907    0.154070
4904.000000    20.647984    0.155320
4906.000000    20.692263    0.155038
4908.000000    21.061720    0.155879
4910.000000    21.187294    0.155882
4912.000000    21.431692    0.156613
4914.000000    21.443851    0.157026
4916.000000    21.843878    0.158251
4918.000000    22.235315    0.158358
4920.000000    22.110678    0.158022
4922.000000    22.972366    0.159967
4924.000000    22.904284    0.160228
4926.000000    23.154522    0.161118
4928.000000    22.842127    0.160433
4930.000000    22.616924    0.159831
4932.000000    22.899176    0.160351
4934.000000    22.201855    0.159097
4936.000000    22.092131    0.158276
4938.000000    21.956020    0.157751
4940.000000    21.712908    0.157360
4942.000000    21.241409    0.156568
4944.000000    20.999397    0.155957
4946.000000    20.838533    0.155707
4948.000000    20.816416    0.155984
4950.000000    19.971607    0.154181
4952.000000    19.899490    0.154612
4954.000000    19.709146    0.153533
4956.000000    19.681538    0.152687
4958.000000    19.713078    0.151894
4960.000000    19.260918    0.151280
4962.000000    19.049891    0.151441
4964.000000    19.070724    0.151490
4966.000000    19.029943    0.151455
4968.000000    18.623730    0.150768
4970.000000    18.672417    0.151022
4972.000000    18.592478    0.151462
4974.000000    18.677238    0.151788
4976.000000    18.227802    0.151240
4978.000000    18.195585    0.151377
4980.000000    18.606880    0.153017
4982.000000    17.889629    0.151757
4984.000000    18.484509    0.152567
4986.000000    18.064407    0.151290
4988.000000    18.120646    0.150795
4990.000000    17.927370    0.149450
4992.000000    17.961618    0.149272
4994.000000    18.219290    0.149175
4996.000000    17.939980    0.147890
4998.000000    17.811619    0.147002
5000.000000    17.875576    0.146299
5002.000000    17.565952    0.145060
5004.000000    17.214113    0.143835
5006.000000    17.640484    0.144362
5008.000000    17.539791    0.144027
5010.000000    17.619150    0.144098
5012.000000    17.431089    0.143476
5014.000000    17.332811    0.143387
5016.000000    17.822800    0.144529
5018.000000    17.384233    0.143753
5020.000000    17.872711    0.144681
5022.000000    17.762018    0.144418
5024.000000    17.992731    0.145122
5026.000000    17.802574    0.144529
5028.000000    18.286970    0.146492
5030.000000    18.403933    0.146762
5032.000000    18.494415    0.146931
5034.000000    18.667847    0.147063
5036.000000    18.422934    0.145922
5038.000000    18.957685    0.146968
5040.000000    18.998217    0.146965
5042.000000    18.969860    0.147574
5044.000000    18.964138    0.148061
5046.000000    19.026199    0.148845
5048.000000    19.095886    0.149008
5050.000000    18.862331    0.148812
5052.000000    19.438105    0.150063
5054.000000    19.485495    0.150553
5056.000000    19.858347    0.151336
5058.000000    19.983871    0.151301
5060.000000    19.671175    0.151202
5062.000000    20.091755    0.151973
5064.000000    20.190313    0.152778
5066.000000    20.210997    0.153212
5068.000000    20.522264    0.154329
5070.000000    20.108967    0.154099
5072.000000    20.154945    0.153287
5074.000000    20.770052    0.154564
5076.000000    20.537977    0.154189
5078.000000    21.016459    0.155580
5080.000000    20.732126    0.156511
5082.000000    20.773155    0.158679
5084.000000    21.033522    0.160020
5086.000000    21.249653    0.160876
5088.000000    21.013327    0.159019
5090.000000    21.356087    0.157797
5092.000000    21.438164    0.157131
5094.000000    21.489380    0.156714
5096.000000    21.737057    0.157418
5098.000000    21.638004    0.158012
5100.000000    21.951004    0.158518
5102.000000    22.486349    0.159687
5104.000000    22.338684    0.158772
5106.000000    22.585915    0.159016
5108.000000    22.973679    0.160248
5110.000000    23.277573    0.161454
5112.000000    23.063030    0.161551
5114.000000    23.674210    0.163599
5116.000000    23.671068    0.163390
5118.000000    24.040516    0.164493
5120.000000    24.321028    0.164758
5122.000000    24.508821    0.164421
5124.000000    25.173132    0.165588
5126.000000    24.852098    0.164968
5128.000000    24.566753    0.164610
5130.000000    24.998493    0.165802
5132.000000    25.525951    0.167046
5134.000000    25.710291    0.167787
5136.000000    25.697021    0.167942
5138.000000    26.230303    0.168961
5140.000000    26.273563    0.168925
5142.000000    26.387911    0.169543
5144.000000    26.793472    0.170917
5146.000000    27.235779    0.171673
5148.000000    27.611563    0.172948
5150.000000    27.794880    0.174296
5152.000000    27.290504    0.173878
5154.000000    27.526325    0.174416
5156.000000    27.409033    0.174272
5158.000000    27.974707    0.175632
5160.000000    27.874863    0.175570
5162.000000    28.313700    0.175827
5164.000000    28.634928    0.175575
5166.000000    27.852009    0.173324
5168.000000    28.523281    0.174380
5170.000000    28.406025    0.174003
5172.000000    28.119566    0.173741
5174.000000    28.473806    0.174907
5176.000000    28.351761    0.175541
5178.000000    28.223234    0.175611
5180.000000    28.292837    0.175588
5182.000000    28.618992    0.175374
5184.000000    28.331821    0.174944
5186.000000    28.833487    0.176011
5188.000000    28.781528    0.176276
5190.000000    28.943817    0.176503
5192.000000    28.774130    0.176100
5194.000000    28.763943    0.176616
5196.000000    28.779535    0.177784
5198.000000    29.179268    0.179820
5200.000000    28.759874    0.179186
5202.000000    29.260693    0.180301
5204.000000    29.198631    0.179312
5206.000000    29.544252    0.179740
5208.000000    29.433311    0.180027
5210.000000    29.686634    0.181359
5212.000000    29.355803    0.180960
5214.000000    29.498989    0.181364
5216.000000    29.471634    0.181808
5218.000000    29.198830    0.181674
5220.000000    29.690693    0.183029
5222.000000    29.694544    0.183063
5224.000000    29.961218    0.183199
5226.000000    30.143730    0.183062
5228.000000    29.719666    0.182465
5230.000000    29.455111    0.183748
5232.000000    29.677214    0.183688
5234.000000    29.601673    0.183399
5236.000000    29.206053    0.183484
5238.000000    29.379984    0.184725
5240.000000    29.388054    0.184945
5242.000000    29.210583    0.185135
5244.000000    29.247320    0.185393
5246.000000    29.432674    0.185757
5248.000000    28.580242    0.183842
5250.000000    28.398197    0.184369
5252.000000    28.043802    0.183653
5254.000000    27.568331    0.183211
5256.000000    27.916595    0.184324
5258.000000    27.123804    0.183383
5260.000000    26.539816    0.181804
5262.000000    26.676409    0.182034
5264.000000    26.335724    0.181013
5266.000000    25.852720    0.179599
5268.000000    25.478159    0.179249
5270.000000    24.864683    0.177987
5272.000000    24.293268    0.176730
5274.000000    24.036205    0.176218
5276.000000    23.959948    0.176394
5278.000000    23.710543    0.175751
5280.000000    23.621603    0.175723
5282.000000    23.424633    0.175340
5284.000000    22.742519    0.173916
5286.000000    22.813379    0.174330
5288.000000    21.921673    0.172405
5290.000000    22.016575    0.172552
5292.000000    21.960730    0.172549
5294.000000    21.717768    0.172411
5296.000000    22.177963    0.173289
5298.000000    21.775837    0.173135
5300.000000    21.787312    0.173645
5302.000000    21.671474    0.173797
5304.000000    21.319771    0.173546
5306.000000    21.052658    0.173262
5308.000000    21.284225    0.174495
5310.000000    21.207253    0.175619
5312.000000    21.177988    0.175776
5314.000000    21.146605    0.175674
5316.000000    20.872925    0.175527
5318.000000    20.972803    0.176240
5320.000000    20.844893    0.176011
5322.000000    21.272375    0.176959
5324.000000    21.379705    0.177882
5326.000000    21.602804    0.178243
5328.000000    21.320553    0.177789
5330.000000    21.321800    0.179077
5332.000000    21.181139    0.178837
5334.000000    21.099838    0.178718
5336.000000    21.439240    0.180087
5338.000000    21.519457    0.180017
5340.000000    21.367823    0.180109
5342.000000    21.398603    0.180484
5344.000000    21.191696    0.180377
5346.000000    21.456415    0.180981
5348.000000    21.110226    0.181021
5350.000000    21.449692    0.181588
5352.000000    21.014814    0.181621
5354.000000    21.152596    0.183151
5356.000000    21.347628    0.183799
5358.000000    21.261379    0.184256
5360.000000    20.972534    0.183311
5362.000000    20.866367    0.184057
5364.000000    21.522982    0.185417
5366.000000    21.233860    0.184724
5368.000000    21.073814    0.184995
5370.000000    21.347321    0.186168
5372.000000    21.323309    0.187208
5374.000000    21.492769    0.189004
5376.000000    21.913610    0.190940
5378.000000    21.505516    0.191482
5380.000000    21.282974    0.191705
5382.000000    21.773960    0.193613
5384.000000    21.827927    0.193598
5386.000000    21.937292    0.194680
5388.000000    21.592026    0.194171
5390.000000    22.158930    0.196581
5392.000000    21.801825    0.197132
5394.000000    21.883518    0.197216
5396.000000    22.217731    0.199069
5398.000000    21.645231    0.198139
5400.000000    21.348366    0.197728
5402.000000    21.744043    0.199546
5404.000000    22.053120    0.201988
5406.000000    21.312237    0.200381
5408.000000    21.350142    0.201248
5410.000000    21.273750    0.201613
5412.000000    21.303358    0.203531
5414.000000    20.925192    0.203607
5416.000000    20.971445    0.205057
5418.000000    21.155624    0.205715
5420.000000    21.240299    0.206731
5422.000000    21.312449    0.207851
5424.000000    20.923885    0.207448
5426.000000    21.228045    0.208610
5428.000000    20.552324    0.207872
5430.000000    20.581621    0.208584
5432.000000    20.323957    0.208602
5434.000000    20.021128    0.208530
5436.000000    20.451590    0.209770
5438.000000    19.981876    0.210452
5440.000000    19.767797    0.210445
5442.000000    19.888924    0.212234
5444.000000    19.878639    0.213092
5446.000000    19.853678    0.213773
5448.000000    19.593964    0.213363
5450.000000    19.267309    0.212871
5452.000000    18.623194    0.211354
5454.000000    18.647633    0.212238
5456.000000    18.342819    0.215833
5458.000000    18.381315    0.226446
5460.000000    18.219992    0.232429
5462.000000    18.025188    0.229804
5464.000000    17.707659    0.225495
5466.000000    18.038050    0.223301
5468.000000    17.469801    0.218440
5470.000000    16.979475    0.214892
5472.000000    16.808680    0.212724
5474.000000    16.876858    0.212083
5476.000000    17.440395    0.214395
5478.000000    16.866400    0.212762
5480.000000    16.524014    0.213350
5482.000000    16.555937    0.215340
5484.000000    16.390066    0.215385
5486.000000    16.083612    0.215079
5488.000000    16.142776    0.215174
5490.000000    16.048735    0.215348
5492.000000    16.116764    0.216778
5494.000000    16.524984    0.218183
5496.000000    16.352713    0.216872
5498.000000    16.675158    0.219640
5500.000000    16.134270    0.217940
5502.000000    16.582201    0.221242
5504.000000    16.590574    0.222371
5506.000000    16.581488    0.223571
5508.000000    16.803410    0.226714
5510.000000    16.492260    0.226768
5512.000000    16.983669    0.229537
5514.000000    17.469191    0.233293
5516.000000    17.269741    0.235135
5518.000000    17.674416    0.238228
5520.000000    17.569834    0.239467
5522.000000    18.073908    0.242336
5524.000000    18.657108    0.245720
5526.000000    18.722525    0.247132
5528.000000    18.754276    0.248358
5530.000000    18.934952    0.249162
5532.000000    19.143562    0.252205
5534.000000    20.279648    0.256538
5536.000000    20.326162    0.259524
5538.000000    19.985336    0.260228
5540.000000    20.062101    0.263602
5542.000000    20.935816    0.267644
5544.000000    20.914284    0.269530
5546.000000    21.140934    0.272169
5548.000000    20.863234    0.271552
5550.000000    21.344213    0.274821
5552.000000    21.632778    0.277831
5554.000000    21.528969    0.278857
5556.000000    21.503057    0.281072
5558.000000    21.681404    0.283343
5560.000000    22.054972    0.286844
5562.000000    21.636625    0.287033
5564.000000    21.634451    0.290746
5566.000000    22.378790    0.294873
5568.000000    22.628410    0.298609
5570.000000    22.336689    0.300477
5572.000000    23.142056    0.309770
5574.000000    22.833591    0.332563
5576.000000    22.052214    0.356885
5578.000000    23.486135    0.353977
5580.000000    23.454323    0.351008
5582.000000    23.854868    0.348510
5584.000000    23.743292    0.349234
5586.000000    24.683083    0.353780
5588.000000    22.736994    0.347192
5590.000000    23.332535    0.354774
