# File created by shivutils (I.Shivvers)
# Manually joined b and r; some significant match between them!
# wl(A)   flm    er(optional)
3050.00   26.14561519
3052.00   22.56793051
3054.00   22.51674612
3056.00   24.26516323
3058.00   22.22468170
3060.00   24.11704186
3062.00   25.81782615
3064.00   22.49480995
3066.00   23.96704025
3068.00   27.14799365
3070.00   29.01799982
3072.00   26.79283663
3074.00   25.32227765
3076.00   24.08654014
3078.00   23.98270894
3080.00   26.77612336
3082.00   28.49194960
3084.00   26.93489944
3086.00   23.80721959
3088.00   26.64471526
3090.00   30.10373572
3092.00   32.15528979
3094.00   31.52749753
3096.00   30.58319769
3098.00   28.24271293
3100.00   28.90476740
3102.00   36.32399754
3104.00   34.60273949
3106.00   32.18934308
3108.00   30.15721818
3110.00   32.39637873
3112.00   30.75053932
3114.00   30.71439687
3116.00   32.82382065
3118.00   31.44998974
3120.00   31.44769166
3122.00   33.30871444
3124.00   35.92851975
3126.00   34.07146637
3128.00   32.04895160
3130.00   30.83619484
3132.00   31.12387203
3134.00   32.01928555
3136.00   33.62626660
3138.00   35.32099233
3140.00   35.00991657
3142.00   30.94629352
3144.00   32.05333884
3146.00   34.87809064
3148.00   31.20388681
3150.00   31.19323210
3152.00   31.56259540
3154.00   31.47631314
3156.00   30.86272716
3158.00   30.31912800
3160.00   29.27392179
3162.00   28.16583188
3164.00   28.76959882
3166.00   28.48192163
3168.00   27.24722870
3170.00   26.14582411
3172.00   28.66367846
3174.00   28.78714775
3176.00   28.27321465
3178.00   27.68678774
3180.00   29.06793071
3182.00   27.89507689
3184.00   25.37617796
3186.00   25.63251776
3188.00   27.22654603
3190.00   28.26444019
3192.00   28.06429876
3194.00   27.00739325
3196.00   27.14172617
3198.00   26.29875054
3200.00   24.99866694
3202.00   25.74303426
3204.00   28.11026026
3206.00   29.44042775
3208.00   28.26151536
3210.00   28.43972062
3212.00   27.83595369
3214.00   27.42418046
3216.00   28.37997068
3218.00   26.63823887
3220.00   24.74755003
3222.00   24.34329778
3224.00   26.87076226
3226.00   26.90502447
3228.00   26.71198618
3230.00   27.21860722
3232.00   29.68047211
3234.00   29.43123545
3236.00   28.33484484
3238.00   27.66171783
3240.00   27.59549149
3242.00   27.63434985
3244.00   27.06317380
3246.00   26.01650517
3248.00   27.58713486
3250.00   27.18162911
3252.00   26.11950071
3254.00   25.72214268
3256.00   26.74374140
3258.00   26.93594402
3260.00   26.91484351
3262.00   27.34353893
3264.00   26.45209481
3266.00   25.77604298
3268.00   25.88802189
3270.00   26.59227737
3272.00   26.88810228
3274.00   26.57472844
3276.00   25.76204561
3278.00   25.06572894
3280.00   25.98495887
3282.00   26.24317891
3284.00   25.20256885
3286.00   24.99260837
3288.00   24.80688214
3290.00   25.26210988
3292.00   26.33050576
3294.00   26.50766644
3296.00   27.26916487
3298.00   27.91722197
3300.00   27.43191035
3302.00   26.69757098
3304.00   26.24798398
3306.00   26.46128711
3308.00   27.53218998
3310.00   27.97676300
3312.00   27.48079667
3314.00   26.29895946
3316.00   25.59909121
3318.00   25.74951066
3320.00   26.58433857
3322.00   27.50022585
3324.00   27.58170305
3326.00   27.72104995
3328.00   27.44569880
3330.00   26.51205367
3332.00   26.61337788
3334.00   26.71094160
3336.00   26.62507717
3338.00   26.36497688
3340.00   26.64743117
3342.00   27.40036405
3344.00   28.04674983
3346.00   27.91743089
3348.00   27.97112227
3350.00   28.06032936
3352.00   28.07746046
3354.00   27.92014679
3356.00   27.88128844
3358.00   28.01060738
3360.00   28.28512286
3362.00   28.10232145
3364.00   27.94500779
3366.00   28.02502257
3368.00   28.42238060
3370.00   28.20239217
3372.00   27.99514760
3374.00   28.16060899
3376.00   28.86193964
3378.00   29.06918421
3380.00   28.92377875
3382.00   28.65323267
3384.00   28.33233785
3386.00   28.41485963
3388.00   28.80135403
3390.00   29.25992442
3392.00   29.74836978
3394.00   29.84488892
3396.00   29.82316167
3398.00   29.89962489
3400.00   30.35318129
3402.00   30.17226013
3404.00   29.97107412
3406.00   30.04544818
3408.00   30.16306783
3410.00   30.36592516
3412.00   30.32038150
3414.00   29.89523765
3416.00   29.93242468
3418.00   30.31829234
3420.00   30.69099829
3422.00   30.77769839
3424.00   30.54350367
3426.00   30.44405971
3428.00   30.46035515
3430.00   30.43173367
3432.00   30.60032880
3434.00   30.53807186
3436.00   30.27379325
3438.00   30.38514542
3440.00   30.49127470
3442.00   30.59907530
3444.00   30.78145888
3446.00   30.69099829
3448.00   30.67073345
3450.00   30.90680841
3452.00   31.39859643
3454.00   31.24817698
3456.00   31.12825926
3458.00   31.13055733
3460.00   31.28557293
3462.00   31.36140940
3464.00   31.33821973
3466.00   31.24462541
3468.00   31.05242279
3470.00   30.93772796
3472.00   30.90910649
3474.00   30.97136342
3476.00   31.09629513
3478.00   31.03988784
3480.00   30.90242118
3482.00   30.71314338
3484.00   30.44782019
3486.00   30.40875292
3488.00   30.38493651
3490.00   30.12943237
3492.00   29.90338537
3494.00   29.61988651
3496.00   29.43750293
3498.00   29.33910354
3500.00   29.23798825
3502.00   29.15379515
3504.00   29.16591227
3506.00   29.48388226
3508.00   29.39551084
3510.00   29.18178988
3512.00   28.98081279
3514.00   28.89160570
3516.00   29.14794550
3518.00   29.19787640
3520.00   28.91876477
3522.00   28.73659011
3524.00   28.92148067
3526.00   29.13018765
3528.00   29.14481176
3530.00   29.37399250
3532.00   29.46152826
3534.00   29.36584478
3536.00   29.05769384
3538.00   29.21082919
3540.00   29.37691732
3542.00   29.43290678
3544.00   29.45212704
3546.00   29.46090151
3548.00   29.38214022
3550.00   29.34265511
3552.00   29.59042936
3554.00   29.54112521
3556.00   29.41473110
3558.00   29.39070577
3560.00   29.44126342
3562.00   29.39237710
3564.00   29.34829584
3566.00   29.34035704
3568.00   29.44878439
3570.00   29.44126342
3572.00   29.37315684
3574.00   29.35456332
3576.00   29.48179310
3578.00   29.51271265
3580.00   29.42204315
3582.00   29.26598298
3584.00   29.03450417
3586.00   28.76228676
3588.00   28.55942943
3590.00   28.55232629
3592.00   28.32962195
3594.00   28.16457839
3596.00   28.18087383
3598.00   28.31019277
3600.00   28.35887017
3602.00   28.43909387
3604.00   28.54250724
3606.00   28.45497148
3608.00   28.33463593
3610.00   28.22077677
3612.00   28.20677940
3614.00   28.25775488
3616.00   28.27613948
3618.00   28.29849348
3620.00   28.40650299
3622.00   28.59410947
3624.00   28.59891453
3626.00   28.48589103
3628.00   28.69167319
3630.00   28.48735345
3632.00   28.46729752
3634.00   28.70984887
3636.00   28.66409629
3638.00   28.52746530
3640.00   28.46186571
3642.00   28.55399762
3644.00   28.58261909
3646.00   28.54731231
3648.00   28.52997229
3650.00   28.51910866
3652.00   28.19027504
3654.00   27.88692917
3656.00   27.68177376
3658.00   27.60301247
3660.00   27.44381856
3662.00   27.25140702
3664.00   27.02807593
3666.00   26.73851850
3668.00   26.56825205
3670.00   26.46504759
3672.00   26.36038073
3674.00   26.23670252
3676.00   26.34011589
3678.00   26.32465611
3680.00   26.09296839
3682.00   25.86608573
3684.00   25.77771430
3686.00   25.60849243
3688.00   25.24414311
3690.00   25.31977066
3692.00   25.21447705
3694.00   24.94330422
3696.00   24.69344081
3698.00   24.40430122
3700.00   24.09594136
3702.00   23.77191281
3704.00   23.46292620
3706.00   23.07225348
3708.00   22.63164986
3710.00   22.18937491
3712.00   21.90274230
3714.00   21.69549774
3716.00   21.50183270
3718.00   21.29458814
3720.00   21.13455856
3722.00   21.05078329
3724.00   20.96324753
3726.00   20.76793206
3728.00   20.63096680
3730.00   20.48441230
3732.00   20.34498183
3734.00   20.18831581
3736.00   19.93339663
3738.00   19.67849835
3740.00   19.47574548
3742.00   19.36412171
3744.00   19.21597945
3746.00   19.10581810
3748.00   19.00902737
3750.00   18.83205471
3752.00   18.65671161
3754.00   18.52189818
3756.00   18.45487796
3758.00   18.38194542
3760.00   18.26873390
3762.00   18.18456169
3764.00   18.15044572
3766.00   18.00293021
3768.00   18.00848737
3770.00   18.06194895
3772.00   18.00428816
3774.00   17.99269333
3776.00   17.98740776
3778.00   17.96651617
3780.00   17.88113224
3782.00   17.87735086
3784.00   17.90528292
3786.00   17.89249727
3788.00   17.73332425
3790.00   17.62544008
3792.00   17.55455492
3794.00   17.49350969
3796.00   17.28705901
3798.00   17.36699023
3800.00   17.54628185
3802.00   17.69993949
3804.00   17.86406381
3806.00   18.23871268
3808.00   18.64471983
3810.00   18.93931213
3812.00   19.35829296
3814.00   19.73129140
3816.00   20.08928967
3818.00   20.50563816
3820.00   21.09820720
3822.00   21.67084566
3824.00   22.14341341
3826.00   22.59488066
3828.00   23.11508124
3830.00   23.54168749
3832.00   23.86070206
3834.00   24.09259870
3836.00   24.45799260
3838.00   24.86516968
3840.00   25.26524362
3842.00   25.64171006
3844.00   26.04053050
3846.00   26.38357040
3848.00   26.63071790
3850.00   27.04625161
3852.00   27.39472332
3854.00   27.72021428
3856.00   28.16165357
3858.00   28.51555709
3860.00   28.99543690
3862.00   29.53527557
3864.00   29.93179794
3866.00   30.27128626
3868.00   30.61641532
3870.00   30.96467811
3872.00   31.18215956
3874.00   31.53042235
3876.00   31.85674898
3878.00   32.11183529
3880.00   32.59798257
3882.00   32.91866847
3884.00   33.11672074
3886.00   33.25439631
3888.00   33.53831301
3890.00   33.84124106
3892.00   34.09862544
3894.00   34.27557720
3896.00   34.56179197
3898.00   34.84341060
3900.00   35.09703449
3902.00   35.36277551
3904.00   35.65045270
3906.00   35.84474448
3908.00   35.93708530
3910.00   35.98994102
3912.00   36.01772684
3914.00   36.13242166
3916.00   36.35345468
3918.00   36.52852620
3920.00   36.73284594
3922.00   36.99378189
3924.00   37.27665401
3926.00   37.39093101
3928.00   37.09949334
3930.00   36.58367999
3932.00   36.14558336
3934.00   36.23270129
3936.00   36.31752114
3938.00   36.32838477
3940.00   36.37915133
3942.00   36.78235901
3944.00   37.33932878
3946.00   37.90632652
3948.00   38.31204118
3950.00   38.46496762
3952.00   38.47395100
3954.00   38.41482780
3956.00   38.32541180
3958.00   38.34985496
3960.00   38.32102457
3962.00   38.08620310
3964.00   37.57561266
3966.00   36.92546640
3968.00   36.42761982
3970.00   36.36473614
3972.00   36.18068123
3974.00   36.05219796
3976.00   36.09189198
3978.00   36.33569683
3980.00   36.38980604
3982.00   36.33695032
3984.00   36.28660159
3986.00   36.44057261
3988.00   36.22518032
3990.00   35.79230659
3992.00   35.38868108
3994.00   35.47224744
3996.00   35.44362596
3998.00   35.14905455
4000.00   34.56993969
4002.00   34.33365582
4004.00   34.36457537
4006.00   34.41158145
4008.00   34.23692776
4010.00   33.34214099
4012.00   33.08245853
4014.00   33.18148466
4016.00   32.93517282
4018.00   32.78767820
4020.00   32.75822106
4022.00   32.70097811
4024.00   32.19101441
4026.00   32.25348026
4028.00   32.28272849
4030.00   32.08091573
4032.00   31.83397715
4034.00   31.65598081
4036.00   31.52687078
4038.00   31.40590848
4040.00   31.04385724
4042.00   30.58967408
4044.00   30.40290328
4046.00   30.74698775
4048.00   30.83159869
4050.00   30.91307589
4052.00   30.99664225
4054.00   31.06453991
4056.00   30.83431460
4058.00   30.70436891
4060.00   30.66112332
4062.00   30.55624754
4064.00   30.59677723
4066.00   30.51216629
4068.00   30.29990774
4070.00   30.47100986
4072.00   30.55603863
4074.00   30.36989456
4076.00   29.88604535
4078.00   29.52733676
4080.00   29.31215339
4082.00   29.29293313
4084.00   29.46737790
4086.00   29.31089990
4088.00   28.84710661
4090.00   28.53812001
4092.00   28.91960043
4094.00   29.46675116
4096.00   29.22315522
4098.00   28.59034898
4100.00   28.83394491
4102.00   29.04202514
4104.00   29.05393335
4106.00   28.81451574
4108.00   28.47210259
4110.00   28.64759194
4112.00   28.71402719
4114.00   28.35531860
4116.00   28.16645863
4118.00   28.00099724
4120.00   27.88880941
4122.00   27.87272289
4124.00   27.96213889
4126.00   27.81151053
4128.00   27.48978005
4130.00   27.19562647
4132.00   26.91338110
4134.00   26.49826522
4136.00   26.05995968
4138.00   25.86587681
4140.00   25.86190741
4142.00   25.89428937
4144.00   25.94234003
4146.00   26.11427781
4148.00   26.33823565
4150.00   26.51226259
4152.00   26.63719429
4154.00   26.95140379
4156.00   27.36296811
4158.00   27.61805441
4160.00   27.58755269
4162.00   27.75865481
4164.00   27.98658205
4166.00   28.26924525
4168.00   28.57656053
4170.00   28.58011210
4172.00   28.69731392
4174.00   28.93756720
4176.00   29.17970072
4178.00   28.99982413
4180.00   29.07315361
4182.00   29.43416028
4184.00   29.54112521
4186.00   29.32949341
4188.00   29.20665087
4190.00   29.27099696
4192.00   29.29105289
4194.00   29.27225046
4196.00   29.20477062
4198.00   29.04348755
4200.00   28.80386102
4202.00   28.65803773
4204.00   28.55922051
4206.00   28.42279843
4208.00   28.31520675
4210.00   28.26130645
4212.00   28.25253198
4214.00   28.26569368
4216.00   28.30392529
4218.00   28.20385458
4220.00   27.99368519
4222.00   27.85747203
4224.00   27.86917132
4226.00   27.73734539
4228.00   27.42919444
4230.00   27.26707571
4232.00   27.35878979
4234.00   27.43671542
4236.00   27.36484835
4238.00   27.35858087
4240.00   27.34353893
4242.00   27.33455554
4244.00   27.38720235
4246.00   27.43399951
4248.00   27.43107469
4250.00   27.37759222
4252.00   27.29402586
4254.00   27.17473488
4256.00   27.05105668
4258.00   26.99109781
4260.00   27.01783905
4262.00   27.17034765
4264.00   27.27271644
4266.00   27.29987551
4268.00   27.35147773
4270.00   27.35482039
4272.00   27.42794095
4274.00   27.58692594
4276.00   27.49709211
4278.00   27.33079506
4280.00   27.17849537
4282.00   27.11101554
4284.00   27.13441412
4286.00   27.31094805
4288.00   27.44256506
4290.00   27.27229861
4292.00   26.95432862
4294.00   26.83650005
4296.00   26.84673693
4298.00   26.65766805
4300.00   26.44728974
4302.00   26.45021457
4304.00   26.60878173
4306.00   26.44332034
4308.00   26.30230211
4310.00   26.20014224
4312.00   26.14436170
4314.00   25.99561358
4316.00   25.76204561
4318.00   25.62269871
4320.00   25.71357712
4322.00   25.51803185
4324.00   25.25417107
4326.00   25.03251131
4328.00   24.90925093
4330.00   24.74065581
4332.00   24.58877395
4334.00   24.47282563
4336.00   24.38173830
4338.00   24.07400519
4340.00   23.90561898
4342.00   23.90603681
4344.00   23.78841716
4346.00   23.64760785
4348.00   23.57782994
4350.00   23.63465506
4352.00   23.75875111
4354.00   23.73430795
4356.00   23.56132559
4358.00   23.32316147
4360.00   23.35846825
4362.00   23.48507128
4364.00   23.56571282
4366.00   23.48047513
4368.00   23.37288345
4370.00   23.41926278
4372.00   23.55589377
4374.00   23.61000299
4376.00   23.53667351
4378.00   23.54816388
4380.00   23.69753875
4382.00   23.90415657
4384.00   23.90749922
4386.00   23.82393286
4388.00   23.74893206
4390.00   23.86926761
4392.00   23.95262505
4394.00   23.91397561
4396.00   23.73702385
4398.00   23.82476853
4400.00   23.95032698
4402.00   24.04350347
4404.00   24.02323863
4406.00   24.08424207
4408.00   24.15213973
4410.00   24.20792028
4412.00   24.25137478
4414.00   24.37881348
4416.00   24.48201793
4418.00   24.49977578
4420.00   24.41996991
4422.00   24.41224002
4424.00   24.46029068
4426.00   24.53299341
4428.00   24.56537537
4430.00   24.61405277
4432.00   24.69699238
4434.00   24.80771781
4436.00   24.86161811
4438.00   24.88188295
4440.00   24.94267748
4442.00   25.12297189
4444.00   25.35110805
4446.00   25.52450824
4448.00   25.65633417
4450.00   25.80278421
4452.00   26.00292564
4454.00   26.11887396
4456.00   26.15815015
4458.00   26.20891671
4460.00   26.28412643
4462.00   26.39192703
4464.00   26.51539632
4466.00   26.59457545
4468.00   26.60397666
4470.00   26.64116369
4472.00   26.72473005
4474.00   26.78364433
4476.00   26.76713998
4478.00   26.76546865
4480.00   26.83232173
4482.00   26.95767127
4484.00   27.05251909
4486.00   27.11038879
4488.00   27.15279872
4490.00   27.44131157
4492.00   27.71269331
4494.00   27.96965986
4496.00   28.32690604
4498.00   28.37140512
4500.00   28.50949853
4502.00   28.80720368
4504.00   28.93046406
4506.00   29.11034064
4508.00   29.35790597
4510.00   29.61341011
4512.00   29.60338215
4514.00   29.62866097
4516.00   29.66501234
4518.00   29.67942754
4520.00   29.71974830
4522.00   29.75944232
4524.00   29.80080767
4526.00   29.86055762
4528.00   30.00241151
4530.00   30.24454503
4532.00   30.53117763
4534.00   30.77811622
4536.00   30.72129110
4538.00   30.78542828
4540.00   31.07582137
4542.00   31.42617332
4544.00   31.54692671
4546.00   31.67227625
4548.00   31.87784949
4550.00   31.88035648
4552.00   31.88641504
4554.00   31.99776721
4556.00   32.25118219
4558.00   32.45403952
4560.00   32.38363486
4562.00   32.23321542
4564.00   32.24428796
4566.00   32.28419090
4568.00   32.26037449
4570.00   32.19017875
4572.00   32.13648736
4574.00   32.15905028
4576.00   32.13168230
4578.00   32.00904867
4580.00   31.77715203
4582.00   31.71573075
4584.00   31.72889245
4586.00   31.75626044
4588.00   31.72450522
4590.00   31.79553662
4592.00   31.81120532
4594.00   31.70173339
4596.00   31.79971494
4598.00   31.91608109
4600.00   31.93112304
4602.00   31.75563369
4604.00   31.68272204
4606.00   31.78592649
4608.00   31.90166590
4610.00   31.76858647
4612.00   31.61357088
4614.00   31.61210847
4616.00   31.69170542
4618.00   31.61252630
4620.00   31.43975286
4622.00   31.36642338
4624.00   31.43724587
4626.00   31.44810949
4628.00   31.32338670
4630.00   31.21746635
4632.00   31.23459745
4634.00   31.23355287
4636.00   31.06453991
4638.00   30.84434256
4640.00   30.72212676
4642.00   30.67115128
4644.00   30.56794683
4646.00   30.38827916
4648.00   30.15659144
4650.00   30.05777422
4652.00   29.89147717
4654.00   29.67566705
4656.00   29.60547131
4658.00   29.62761639
4660.00   29.43060871
4662.00   29.00880752
4664.00   28.82579719
4666.00   28.60852466
4668.00   28.34194798
4670.00   28.06638792
4672.00   28.00141508
4674.00   27.73421165
4676.00   27.35711846
4678.00   27.01491423
4680.00   26.94827006
4682.00   26.78928506
4684.00   26.56532722
4686.00   26.39067354
4688.00   26.24401458
4690.00   26.09568429
4692.00   25.93210315
4694.00   25.74366101
4696.00   25.59637531
4698.00   25.42046812
4700.00   25.23474190
4702.00   25.23808455
4704.00   25.03648071
4706.00   24.78055874
4708.00   24.53800739
4710.00   24.27351987
4712.00   24.15673588
4714.00   24.07442302
4716.00   23.92567490
4718.00   23.69628525
4720.00   23.50596287
4722.00   23.33026461
4724.00   23.12009522
4726.00   22.95212684
4728.00   22.80108065
4730.00   22.63499251
4732.00   22.39118766
4734.00   22.29905576
4736.00   22.19209082
4738.00   22.00949833
4740.00   21.73686309
4742.00   21.70489895
4744.00   21.70134738
4746.00   21.60566390
4748.00   21.41011863
4750.00   21.26513100
4752.00   21.16882077
4754.00   21.08838815
4756.00   20.87046798
4758.00   20.68369717
4760.00   20.58143284
4762.00   20.59043712
4764.00   20.57468486
4766.00   20.58205959
4768.00   20.61134960
4770.00   20.65515926
4772.00   20.67694919
4774.00   20.76252114
4776.00   20.90349758
4778.00   21.03072736
4780.00   21.04827630
4782.00   21.03239869
4784.00   21.03887508
4786.00   21.10823516
4788.00   21.17404367
4790.00   21.20517214
4792.00   21.19389068
4794.00   21.21352877
4796.00   21.25029797
4798.00   21.26032593
4800.00   21.19430851
4802.00   21.12390385
4804.00   21.10008744
4806.00   21.05705077
4808.00   20.89346962
4810.00   20.73887186
4812.00   20.66518722
4814.00   20.66180279
4816.00   20.66516633
4818.00   20.59471989
4820.00   20.44676566
4822.00   20.26475813
4824.00   20.23849740
4826.00   20.15936006
4828.00   20.07844694
4830.00   20.02730433
4832.00   20.09114902
4834.00   20.14947834
4836.00   20.18733390
4838.00   20.19721562
4840.00   20.18731301
4842.00   20.16562754
4844.00   20.17273068
4846.00   20.26379712
4848.00   20.33984250
4850.00   20.34573393
4852.00   20.31556648
4854.00   20.34508629
4856.00   20.50227461
4858.00   20.67684473
4860.00   20.80940187
4862.00   20.86668660
4864.00   21.00753770
4866.00   21.21624468
4868.00   21.43623311
4870.00   21.57077495
4872.00   21.62948032
4874.00   21.65517697
4876.00   21.67836664
4878.00   21.86200371
4880.00   21.94870380
4882.00   21.97001322
4884.00   22.02057087
4886.00   21.98213034
4888.00   21.93533318
4890.00   21.92823004
4892.00   21.97105780
4894.00   21.98004119
4896.00   21.97419154
4898.00   21.96123876
4900.00   21.93303511
4902.00   21.85698972
4904.00   21.79139013
4906.00   21.76757372
4908.00   21.81207281
4910.00   21.82941283
4912.00   21.86116804
4914.00   21.94640573
4916.00   21.97293805
4918.00   22.01743713
4920.00   22.03498607
4922.00   21.96750623
4924.00   21.97356479
4926.00   21.93428860
4928.00   21.85510948
4930.00   21.77091638
4932.00   21.68672327
4934.00   21.60524607
4936.00   21.52397779
4938.00   21.42620515
4940.00   21.29229006
4942.00   21.15921064
4944.00   21.06060234
4946.00   21.04911196
4948.00   21.00482179
4950.00   20.86173530
4952.00   20.62634976
4954.00   20.66545882
4956.00   20.46623662
4958.00   20.23550991
4960.00   20.26889467
4962.00   20.15961076
4964.00   20.01696299
4966.00   19.88735157
4968.00   19.81726029
4970.00   19.77322082
4972.00   19.66034356
4974.00   19.49314817
4976.00   19.38864844
4978.00   19.34552820
4980.00   19.32559762
4982.00   19.30148873
4984.00   19.26035319
4986.00   19.18292896
4988.00   19.16264323
4990.00   19.22976790
4992.00   19.16632014
4994.00   19.14649403
4996.00   19.17749715
4998.00   19.23662034
5000.00   19.28416960
5002.00   19.37193517
5004.00   19.48357982
5006.00   19.59808662
5008.00   19.72237069
5010.00   19.88668304
5012.00   20.07769484
5014.00   20.23120624
5016.00   20.37456433
5018.00   20.52845177
5020.00   20.69825861
5022.00   20.86305147
5024.00   20.98539262
5026.00   21.05558836
5028.00   21.08462766
5030.00   21.19493526
5032.00   21.33365541
5034.00   21.46276543
5036.00   21.55907566
5038.00   21.55782216
5040.00   21.64619359
5042.00   21.76527565
5044.00   21.77613927
5046.00   21.81102823
5048.00   21.81875812
5050.00   21.81311739
5052.00   21.81249064
5054.00   21.77300553
5056.00   21.73310260
5058.00   21.73581851
5060.00   21.81416197
5062.00   21.80768557
5064.00   21.73832550
5066.00   21.65872854
5068.00   21.69090159
5070.00   21.77216987
5072.00   21.85678081
5074.00   21.90086206
5076.00   21.96228333
5078.00   21.98944240
5080.00   22.00281302
5082.00   22.02057087
5084.00   22.07363551
5086.00   21.99842578
5088.00   21.85260249
5090.00   21.81938486
5092.00   21.84821526
5094.00   21.87788131
5096.00   21.89417675
5098.00   21.92718546
5100.00   21.93052812
5102.00   21.93992933
5104.00   21.97586287
5106.00   21.99362072
5108.00   21.96980431
5110.00   21.96228333
5112.00   22.04104463
5114.00   22.27210561
5116.00   22.36653559
5118.00   22.35838787
5120.00   22.36131269
5122.00   22.39160550
5124.00   22.41751107
5126.00   22.43443325
5128.00   22.43819374
5130.00   22.51632829
5132.00   22.56855726
5134.00   22.56772159
5136.00   22.53889120
5138.00   22.58506161
5140.00   22.63018745
5142.00   22.63749950
5144.00   22.71145573
5146.00   22.78938136
5148.00   22.89989787
5150.00   23.03840910
5152.00   23.05386888
5154.00   23.15435742
5156.00   23.35073836
5158.00   23.58952923
5160.00   23.67685608
5162.00   23.74997664
5164.00   23.85485242
5166.00   23.96223519
5168.00   24.06314156
5170.00   24.15882504
5172.00   24.23361693
5174.00   24.23027428
5176.00   24.29044206
5178.00   24.42769980
5180.00   24.58125298
5182.00   24.57226960
5184.00   24.57498550
5186.00   24.58417780
5188.00   24.54114113
5190.00   24.54887102
5192.00   24.58752046
5194.00   24.68174152
5196.00   24.86516968
5198.00   24.91447383
5200.00   24.87728680
5202.00   24.87101932
5204.00   25.06740026
5206.00   25.22095345
5208.00   25.27527158
5210.00   25.26712386
5212.00   25.34400491
5214.00   25.43195850
5216.00   25.52032992
5218.00   25.59470398
5220.00   25.60494086
5222.00   25.61622232
5224.00   25.67074937
5226.00   25.76873092
5228.00   25.84707438
5230.00   25.88488816
5232.00   25.84185148
5234.00   25.69728168
5236.00   25.67430094
5238.00   25.73363305
5240.00   25.80946952
5242.00   25.80570903
5244.00   25.77186466
5246.00   25.75118198
5248.00   25.75870296
5250.00   25.75828512
5252.00   25.72778340
5254.00   25.72172484
5256.00   25.77061116
5258.00   25.81594591
5260.00   25.81615483
5262.00   25.75786729
5264.00   25.72005352
5266.00   25.80905169
5268.00   25.90097468
5270.00   25.91873253
5272.00   25.80926060
5274.00   25.81093193
5276.00   25.78001238
5278.00   25.71399496
5280.00   25.65549851
5282.00   25.71462170
5284.00   25.69268553
5286.00   25.56754491
5288.00   25.46413155
5290.00   25.44741827
5292.00   25.38871291
5294.00   25.27464483
5296.00   25.26921302
5298.00   25.23432406
5300.00   25.18251292
5302.00   25.10813886
5304.00   25.01433563
5306.00   24.94915387
5308.00   24.90277454
5310.00   24.87436198
5312.00   24.84386026
5314.00   24.76781487
5316.00   24.66210343
5318.00   24.56474862
5320.00   24.54051438
5322.00   24.51377315
5324.00   24.48765866
5326.00   24.49100131
5328.00   24.43981692
5330.00   24.36774094
5332.00   24.31718329
5334.00   24.38737903
5336.00   24.39343759
5338.00   24.32658450
5340.00   24.18932676
5342.00   24.23215452
5344.00   24.27581794
5346.00   24.26516323
5348.00   24.15986962
5350.00   24.04914420
5352.00   24.01759790
5354.00   24.07588543
5356.00   24.20165280
5358.00   24.17094216
5360.00   24.09489678
5362.00   24.03034177
5364.00   23.99461715
5366.00   23.98730509
5368.00   24.02804369
5370.00   24.08737581
5372.00   24.09322545
5374.00   24.15527347
5376.00   24.19642990
5378.00   24.17553831
5380.00   24.12915899
5382.00   24.10805848
5384.00   24.09343437
5386.00   24.07003579
5388.00   24.10889414
5390.00   24.16467469
5392.00   24.17825422
5394.00   24.08361532
5396.00   24.08695797
5398.00   24.10764065
5400.00   24.12226476
5402.00   24.06940904
5404.00   24.08674906
5406.00   24.09823943
5408.00   24.10659607
5410.00   24.14817033
5412.00   24.14587226
5414.00   24.05645625
5416.00   23.90770814
5418.00   23.85986640
5420.00   23.87428159
5422.00   23.85276326
5424.00   23.74287350
5426.00   23.67978090
5428.00   23.61543480
5430.00   23.55255112
5432.00   23.51181252
5434.00   23.48528020
5436.00   23.43534930
5438.00   23.37476369
5440.00   23.35909500
5442.00   23.29433107
5444.00   23.19551386
5446.00   23.09398073
5448.00   23.06556817
5450.00   23.02963464
5452.00   22.94690394
5454.00   22.82364356
5456.00   22.76410254
5458.00   22.71897670
5460.00   22.61723466
5462.00   22.44007398
5464.00   22.40831877
5466.00   22.34251026
5468.00   22.25455667
5470.00   22.17119923
5472.00   22.06381646
5474.00   21.98651758
5476.00   21.90942761
5478.00   21.78721182
5480.00   21.62216826
5482.00   21.53170768
5484.00   21.50747343
5486.00   21.45796037
5488.00   21.33637132
5490.00   21.25176038
5492.00   21.22794397
5494.00   21.14040821
5496.00   21.02153506
5498.00   20.90913831
5500.00   20.82467362
5502.00   20.80041848
5504.00   20.79156045
5506.00   20.79983352
5508.00   20.80612189
5510.00   20.86821169
5512.00   20.87938869
5514.00   20.84209720
5516.00   20.78731946
5518.00   20.81892843
5520.00   20.86509884
5522.00   20.89158938
5524.00   20.87844857
5526.00   20.86850417
5528.00   20.83336452
5530.00   20.79429725
5532.00   20.82933244
5534.00   20.83275866
5536.00   20.85500821
5538.00   20.89451420
5540.00   20.82862213
5542.00   20.82442292
5544.00   20.83785621
5546.00   20.81715265
5548.00   20.81652590
5550.00   20.83156784
5552.00   20.81798831
5554.00   20.72238840
5556.00   20.66623180
5558.00   20.66514544
5560.00   20.70320992
5562.00   20.75130236
5564.00   20.70185196
5566.00   20.65536818
5568.00   20.64853663
5570.00   20.65332080
5572.00   20.61855720
5574.00   20.54886286
5576.00   20.46928679
5578.00   20.44893838
5580.00   20.45848584
5582.00   20.44298428
5584.00   20.37113810
5586.00   20.29728634
5588.00   20.26584449
5590.00   20.23927039
5592.00   20.17642849
5594.00   20.09942209
5596.00   20.04731847
5598.00   20.00534727
5600.00   19.95105003
5602.00   19.92623082
5604.00   19.89096581
5606.00   19.84596533
5608.00   19.78930734
5610.00   19.73672321
5612.00   19.67542729
5614.00   19.60859509
5616.00   19.57489696
5618.00   19.57130361
5620.00   19.54608746
5622.00   19.45784138
5624.00   19.35004078
5626.00   19.28861951
5628.00   19.24142541
5630.00   19.15934235
5632.00   19.06163239
5634.00   18.96271071
5636.00   18.87753570
5638.00   18.82106574
5640.00   18.78291770
5642.00   18.73194222
5644.00   18.65182297
5646.00   18.53510166
5648.00   18.44996844
5650.00   18.38077549
5652.00   18.30884575
5654.00   18.19837103
5656.00   18.15364213
5658.00   18.13375334
5660.00   18.10055660
5662.00   17.98337568
5664.00   17.87465585
5666.00   17.78331782
5668.00   17.71613047
5670.00   17.66881102
5672.00   17.59585759
5674.00   17.50706833
5676.00   17.43125276
5678.00   17.35788149
5680.00   17.27381374
5682.00   17.18811644
5684.00   17.12251685
5686.00   17.04248117
5688.00   16.94186727
5690.00   16.82713067
5692.00   16.71059738
5694.00   16.65243519
5696.00   16.62692656
5698.00   16.61407824
5700.00   16.62997674
5702.00   16.66854261
5704.00   16.68820160
5706.00   16.67549951
5708.00   16.70522824
5710.00   16.76917740
5712.00   16.84678965
5714.00   16.91518871
5716.00   16.98488306
5718.00   17.03470950
5720.00   17.08526714
5722.00   17.18130578
5724.00   17.26932205
5726.00   17.33895371
5728.00   17.40566056
5730.00   17.56890744
5732.00   17.65688192
5734.00   17.74567118
5736.00   17.87453050
5738.00   17.96685043
5740.00   18.04849476
5742.00   18.15633715
5744.00   18.31174968
5746.00   18.41265606
5748.00   18.45788635
5750.00   18.48949532
5752.00   18.56432900
5754.00   18.64649562
5756.00   18.70505474
5758.00   18.73806345
5760.00   18.76977689
5762.00   18.78264611
5764.00   18.83197115
5766.00   18.90904022
5768.00   18.94664508
5770.00   18.93360873
5772.00   18.89571139
5774.00   18.84137236
5776.00   18.77222120
5778.00   18.72312597
5780.00   18.70902415
5782.00   18.72402431
5784.00   18.72099503
5786.00   18.72310508
5788.00   18.74274317
5790.00   18.77700538
5792.00   18.68644034
5794.00   18.67263100
5796.00   18.71936548
5798.00   18.72097413
5800.00   18.73687263
5802.00   18.74155235
5804.00   18.71094617
5806.00   18.63575734
5808.00   18.62483104
5810.00   18.64925331
5812.00   18.67131483
5814.00   18.64873102
5816.00   18.64192036
5818.00   18.62815280
5820.00   18.60832668
5822.00   18.63249825
5824.00   18.63132832
5826.00   18.60855649
5828.00   18.58425957
5830.00   18.53648051
5832.00   18.51980902
5834.00   18.52710018
5836.00   18.51600675
5838.00   18.46726667
5840.00   18.42494031
5842.00   18.40542757
5844.00   18.38721010
5846.00   18.36734220
5848.00   18.33126243
5850.00   18.29332330
5852.00   18.27389412
5854.00   18.24011242
5856.00   18.18949210
5858.00   18.13565447
5860.00   18.14286207
5862.00   18.11722809
5864.00   18.08217201
5866.00   18.06462307
5868.00   18.03420492
5870.00   17.95333357
5872.00   17.85806793
5874.00   17.81244070
5876.00   17.77813671
5878.00   17.69816370
5880.00   17.58227806
5882.00   17.49478408
5884.00   17.27485832
5886.00   17.01233461
5888.00   16.75350870
5890.00   16.48697381
5892.00   16.32884537
5894.00   16.28407469
5896.00   16.33670060
5898.00   16.40298962
5900.00   16.46612400
5902.00   16.53145200
5904.00   16.60797789
5906.00   16.68536034
5908.00   16.77979032
5910.00   16.87927607
5912.00   16.96760571
5914.00   16.95532146
5916.00   16.92108014
5918.00   16.88334993
5920.00   16.85483291
5922.00   16.79103000
5924.00   16.72252648
5926.00   16.68057617
5928.00   16.69290220
5930.00   16.65095189
5932.00   16.56753178
5934.00   16.47017697
5936.00   16.42300376
5938.00   16.38493928
5940.00   16.34163102
5942.00   16.27945765
5944.00   16.17197042
5946.00   16.12636408
5948.00   16.10823018
5950.00   16.04104283
5952.00   16.05364046
5954.00   16.03483803
5956.00   15.99000468
5958.00   15.97341676
5960.00   16.00153684
5962.00   16.00276944
5964.00   15.96466318
5966.00   15.94410586
5968.00   15.95446809
5970.00   15.95317281
5972.00   15.92540788
5974.00   15.94375070
5976.00   15.90944671
5978.00   15.87083905
5980.00   15.87474578
5982.00   15.89994104
5984.00   15.91673787
5986.00   15.94187046
5988.00   15.97590286
5990.00   15.92367388
5992.00   15.88868047
5994.00   15.89749672
5996.00   15.95110454
5998.00   15.96127874
6000.00   15.94122282
6002.00   15.89864576
6004.00   15.83676487
6006.00   15.83680665
6008.00   15.83751697
6010.00   15.81923683
6012.00   15.77638818
6014.00   15.71243902
6016.00   15.67583696
6018.00   15.70190966
6020.00   15.72635282
6022.00   15.69152654
6024.00   15.64046750
6026.00   15.62995903
6028.00   15.60919279
6030.00   15.56354466
6032.00   15.51142015
6034.00   15.49545898
6036.00   15.45135683
6038.00   15.42179523
6040.00   15.39630749
6042.00   15.32297801
6044.00   15.30162681
6046.00   15.27553321
6048.00   15.23138929
6050.00   15.22370118
6052.00   15.23299794
6054.00   15.24676550
6056.00   15.25840211
6058.00   15.25228087
6060.00   15.24668193
6062.00   15.24005929
6064.00   15.22886140
6066.00   15.22472487
6068.00   15.24576270
6070.00   15.26080464
6072.00   15.20072043
6074.00   15.18237762
6076.00   15.17337334
6078.00   15.16269774
6080.00   15.12966814
6082.00   15.09736974
6084.00   15.07768986
6086.00   15.06542650
6088.00   15.02907513
6090.00   14.98860813
6092.00   14.95785571
6094.00   14.93993072
6096.00   14.91262541
6098.00   14.87151077
6100.00   14.81491545
6102.00   14.74231718
6104.00   14.65588867
6106.00   14.57263569
6108.00   14.49130473
6110.00   14.39610176
6112.00   14.29970797
6114.00   14.21877395
6116.00   14.14410741
6118.00   14.03893915
6120.00   13.92175822
6122.00   13.82603296
6124.00   13.75472996
6126.00   13.68234061
6128.00   13.56238110
6130.00   13.42694093
6132.00   13.30303291
6134.00   13.22819924
6136.00   13.13328875
6138.00   13.01257714
6140.00   12.86194878
6142.00   12.73482346
6144.00   12.63652853
6146.00   12.55636751
6148.00   12.48836538
6150.00   12.41204841
6152.00   12.33836377
6154.00   12.26960955
6156.00   12.21558390
6158.00   12.14921132
6160.00   12.07431497
6162.00   11.99992002
6164.00   11.95400031
6166.00   11.91723111
6168.00   11.87979338
6170.00   11.84358826
6172.00   11.83113687
6174.00   11.78611550
6176.00   11.75266806
6178.00   11.76104559
6180.00   11.77316271
6182.00   11.77566970
6184.00   11.77920038
6186.00   11.80096942
6188.00   11.77084375
6190.00   11.74136571
6192.00   11.73850357
6194.00   11.78365029
6196.00   11.79806549
6198.00   11.80347641
6200.00   11.81007815
6202.00   11.82862988
6204.00   11.79280081
6206.00   11.75761937
6208.00   11.74341309
6210.00   11.74922095
6212.00   11.76948579
6214.00   11.77986891
6216.00   11.76718772
6218.00   11.79089967
6220.00   11.82695855
6222.00   11.85664550
6224.00   11.87106070
6226.00   11.86700773
6228.00   11.90281592
6230.00   11.95053231
6232.00   11.94984288
6234.00   11.92429247
6236.00   11.99026811
6238.00   12.10084729
6240.00   12.02446764
6242.00   12.01005244
6244.00   12.02359019
6246.00   12.04774087
6248.00   12.07070073
6250.00   12.11375829
6252.00   12.16208054
6254.00   12.20737351
6256.00   12.21921904
6258.00   12.23020801
6260.00   12.26601620
6262.00   12.34412985
6264.00   12.39516800
6266.00   12.40308592
6268.00   12.41223643
6270.00   12.49473732
6272.00   12.61106169
6274.00   12.66107615
6276.00   12.60464797
6278.00   12.45201402
6280.00   12.31901816
6282.00   12.25703281
6284.00   12.27619040
6286.00   12.32422017
6288.00   12.38390744
6290.00   12.42617112
6292.00   12.42439534
6294.00   12.35781384
6296.00   12.30075891
6298.00   12.25803561
6300.00   12.22724141
6302.00   12.18031890
6304.00   12.12928074
6306.00   12.07502529
6308.00   12.01876424
6310.00   12.01404274
6312.00   12.02304701
6314.00   12.01544247
6316.00   11.92097071
6318.00   11.97445318
6320.00   12.00257326
6322.00   11.93329674
6324.00   11.80257807
6326.00   11.71537658
6328.00   11.66878833
6330.00   11.65525058
6332.00   11.65464473
6334.00   11.63870444
6336.00   11.59445606
6338.00   11.52904449
6340.00   11.52348733
6342.00   11.53698329
6344.00   11.51920455
6346.00   11.42581915
6348.00   11.36276833
6350.00   11.32006592
6352.00   11.28933439
6354.00   11.26349150
6356.00   11.24404143
6358.00   11.23603995
6360.00   11.23219590
6362.00   11.19977215
6364.00   11.15631764
6366.00   11.12289110
6368.00   11.11177678
6370.00   11.08990328
6372.00   11.07128888
6374.00   11.06349631
6376.00   11.07206186
6378.00   11.09000774
6380.00   11.09067627
6382.00   11.08438790
6384.00   11.09161639
6386.00   11.16402664
6388.00   11.21005081
6390.00   11.22739083
6392.00   11.25553180
6394.00   11.31490570
6396.00   11.41635526
6398.00   11.52691355
6400.00   11.53092473
6402.00   11.59113429
6404.00   11.64269474
6406.00   11.65485364
6408.00   11.68082189
6410.00   11.73397009
6412.00   11.80272431
6414.00   11.87319164
6416.00   11.93624246
6418.00   11.98040728
6420.00   12.01400095
6422.00   12.05166849
6424.00   12.08990010
6426.00   12.13473345
6428.00   12.18752650
6430.00   12.24633632
6432.00   12.22320933
6434.00   12.21023565
6436.00   12.22793083
6438.00   12.24878064
6440.00   12.26050082
6442.00   12.26843962
6444.00   12.27759014
6446.00   12.30748600
6448.00   12.31258355
6450.00   12.29977701
6452.00   12.28051496
6454.00   12.25811918
6456.00   12.27270151
6458.00   12.27506226
6460.00   12.21485269
6462.00   12.15349410
6464.00   12.15033947
6466.00   12.17329932
6468.00   12.14578510
6470.00   12.12142551
6472.00   12.09318008
6474.00   12.06779680
6476.00   12.03702349
6478.00   12.02574203
6480.00   12.02342306
6482.00   12.00963461
6484.00   11.95126351
6486.00   11.92506546
6488.00   11.92399999
6490.00   11.93933441
6492.00   11.96933474
6494.00   11.98322764
6496.00   11.97533062
6498.00   11.96181376
6500.00   11.95314375
6502.00   11.91526730
6504.00   11.84966771
6506.00   11.77310004
6508.00   11.75887287
6510.00   11.76971560
6512.00   11.78876873
6514.00   11.80078139
6516.00   11.80034267
6518.00   11.77268221
6520.00   11.73461773
6522.00   11.76286316
6524.00   11.74928363
6526.00   11.74456213
6528.00   11.75862217
6530.00   11.70589179
6532.00   11.67254882
6534.00   11.65186614
6536.00   11.63210270
6538.00   11.62970017
6540.00   11.61093952
6542.00   11.58457433
6544.00   11.56869673
6546.00   11.56545853
6548.00   11.53844571
6550.00   11.50299268
6552.00   11.50309714
6554.00   11.48851481
6556.00   11.42893199
6558.00   11.33111757
6560.00   11.24059432
6562.00   11.19866490
6564.00   11.17631090
6566.00   11.14844152
6568.00   11.08873335
6570.00   11.03222160
6572.00   10.98515285
6574.00   10.94144765
6576.00   10.89164210
6578.00   10.82021375
6580.00   10.76727447
6582.00   10.77067980
6584.00   10.81444768
6586.00   10.82476812
6588.00   10.80473309
6590.00   10.80034585
6592.00   10.84075019
6594.00   10.72829076
6596.00   10.48402630
6598.00   10.42780703
6600.00   10.42174847
6602.00   10.42638640
6604.00   10.41320381
6606.00   10.39387909
6608.00   10.37986083
6610.00   10.36331469
6612.00   10.36222833
6614.00   10.38625366
6616.00   10.41571080
6618.00   10.41917880
6620.00   10.37825218
6622.00   10.29744351
6624.00   10.21878668
6626.00   10.16400893
6628.00   10.15778324
6630.00   10.15995596
6632.00   10.15711471
6634.00   10.14708674
6636.00   10.14443351
6638.00   10.13622312
6640.00   10.10553337
6642.00   10.04973194
6644.00   9.95400668
6646.00   9.90810785
6648.00   9.86563525
6650.00   9.79932535
6652.00   9.79721530
6654.00   9.80446468
6656.00   9.79326679
6658.00   9.75852407
6660.00   9.68941470
6662.00   9.61209492
6664.00   9.53592419
6666.00   9.47297783
6668.00   9.44207917
6670.00   9.40207178
6672.00   9.36239865
6674.00   9.37459934
6676.00   9.37175808
6678.00   9.37184165
6680.00   9.37209234
6682.00   9.34342908
6684.00   9.32727989
6686.00   9.28388805
6688.00   9.18402626
6690.00   9.08894863
6692.00   9.01375980
6694.00   8.95428145
6696.00   8.90978236
6698.00   8.90591742
6700.00   8.90915562
6702.00   8.90428788
6704.00   8.88258151
6706.00   8.81863236
6708.00   8.71252398
6710.00   8.60457713
6712.00   8.56371319
6714.00   8.57056563
6716.00   8.57054474
6718.00   8.54457649
6720.00   8.50007740
6722.00   8.43727729
6724.00   8.37159413
6726.00   8.31923981
6728.00   8.29007515
6730.00   8.23180851
6732.00   8.16205149
6734.00   8.10152855
6736.00   8.05773978
6738.00   8.01487024
6740.00   7.99017638
6742.00   8.01378388
6744.00   7.98480724
6746.00   7.94716060
6748.00   7.89628958
6750.00   7.81917872
6752.00   7.69965794
6754.00   7.59591031
6756.00   7.52698895
6758.00   7.48558182
6760.00   7.45436979
6762.00   7.41678582
6764.00   7.35716122
6766.00   7.26404741
6768.00   7.16172041
6770.00   7.04430967
6772.00   6.91607710
6774.00   6.86079795
6776.00   6.82022649
6778.00   6.78228736
6780.00   6.75021877
6782.00   6.67454943
6784.00   6.61544713
6786.00   6.57999410
6788.00   6.55613590
6790.00   6.53743793
6792.00   6.50610055
6794.00   6.48115599
6796.00   6.50231917
6798.00   6.50837773
6800.00   6.46573800
6802.00   6.38378029
6804.00   6.33967815
6806.00   6.32933681
6808.00   6.31765841
6810.00   6.27721229
6812.00   6.17611789
6814.00   6.13895176
6816.00   6.14173034
6818.00   6.13556732
6820.00   6.11945990
6822.00   6.05620017
6824.00   5.96596940
6826.00   5.90172776
6828.00   5.83959617
6830.00   5.73568141
6832.00   5.61795730
6834.00   5.54736462
6836.00   5.57255988
6838.00   5.57510865
6840.00   5.51824174
6842.00   5.48042797
6844.00   5.42838702
6846.00   5.35879713
6848.00   5.28939527
6850.00   5.29006380
6852.00   5.27128227
6854.00   5.24397696
6856.00   5.23284174
6858.00   5.26539084
6860.00   5.24245187
6862.00   5.20628853
6864.00   5.23006316
6866.00   5.24621236
6868.00   5.26557886
6870.00   5.27362212
6872.00   5.25245894
6874.00   5.23106596
6876.00   5.21368415
6878.00   5.19360734
6880.00   5.13582120
6882.00   5.13761788
6884.00   5.15148989
6886.00   5.14415694
6888.00   5.10552840
6890.00   5.09539597
6892.00   5.11910793
6894.00   5.16701234
6896.00   5.18669222
6898.00   5.21215907
6900.00   5.21698502
6902.00   5.17016697
6904.00   5.15445650
6906.00   5.16630203
6908.00   5.19632324
6910.00   5.22475670
6912.00   5.21232620
6914.00   5.18268104
6916.00   5.15157346
6918.00   5.13889226
6920.00   5.13596744
6922.00   5.16765998
6924.00   5.22724280
6926.00   5.20054334
6928.00   5.20867017
6930.00   5.23476377
6932.00   5.24184602
6934.00   5.23275817
6936.00   5.21443625
6938.00   5.19580095
6940.00   5.18811285
6942.00   5.18389275
6944.00   5.18932456
6946.00   5.18873960
6948.00   5.15587713
6950.00   5.18673400
6950.50   5.32846000
6951.50   5.29404000
6952.50   5.30783000
6953.50   5.29475000
6954.50   5.28199000
6955.50   5.30386000
6956.50   5.33415000
6957.50   5.34545000
6958.50   5.32607000
6959.50   5.32650000
6960.50   5.33061000
6961.50   5.31496000
6962.50   5.27940000
6963.50   5.26747000
6964.50   5.25738000
6965.50   5.26851000
6966.50   5.27458000
6967.50   5.25080000
6968.50   5.25772000
6969.50   5.27735000
6970.50   5.26883000
6971.50   5.23362000
6972.50   5.20302000
6973.50   5.19360000
6974.50   5.22018000
6975.50   5.21918000
6976.50   5.18674000
6977.50   5.16947000
6978.50   5.14868000
6979.50   5.10664000
6980.50   5.08836000
6981.50   5.09770000
6982.50   5.08057000
6983.50   5.05930000
6984.50   5.07375000
6985.50   5.09133000
6986.50   5.09265000
6987.50   5.11673000
6988.50   5.09704000
6989.50   5.03758000
6990.50   4.97125000
6991.50   4.93954000
6992.50   4.95859000
6993.50   4.97996000
6994.50   4.96685000
6995.50   4.93645000
6996.50   4.93049000
6997.50   4.97059000
6998.50   4.97425000
6999.50   4.97689000
7000.50   4.98967000
7001.50   4.99762000
7002.50   4.93726000
7003.50   4.93616000
7004.50   4.95531000
7005.50   4.97251000
7006.50   4.99877000
7007.50   5.00104000
7008.50   4.96366000
7009.50   4.91343000
7010.50   4.90285000
7011.50   4.99684000
7012.50   4.97515000
7013.50   4.95328000
7014.50   4.95693000
7015.50   4.98678000
7016.50   5.03535000
7017.50   5.08495000
7018.50   5.04915000
7019.50   4.98964000
7020.50   4.99314000
7021.50   5.05524000
7022.50   5.05394000
7023.50   5.04322000
7024.50   5.03980000
7025.50   5.03824000
7026.50   5.01482000
7027.50   5.06591000
7028.50   5.12473000
7029.50   5.15376000
7030.50   5.15227000
7031.50   5.11144000
7032.50   5.13035000
7033.50   5.14266000
7034.50   5.12387000
7035.50   5.11626000
7036.50   5.13270000
7037.50   5.16481000
7038.50   5.18006000
7039.50   5.16783000
7040.50   5.16645000
7041.50   5.16333000
7042.50   5.19100000
7043.50   5.21377000
7044.50   5.20872000
7045.50   5.23073000
7046.50   5.24240000
7047.50   5.24807000
7048.50   5.24617000
7049.50   5.24854000
7050.50   5.31161000
7051.50   5.38764000
7052.50   5.39354000
7053.50   5.35429000
7054.50   5.34948000
7055.50   5.35067000
7056.50   5.39112000
7057.50   5.39039000
7058.50   5.36164000
7059.50   5.40019000
7060.50   5.43656000
7061.50   5.42493000
7062.50   5.41348000
7063.50   5.43528000
7064.50   5.47497000
7065.50   5.46337000
7066.50   5.46272000
7067.50   5.48409000
7068.50   5.51258000
7069.50   5.50774000
7070.50   5.53257000
7071.50   5.51524000
7072.50   5.49471000
7073.50   5.52416000
7074.50   5.58361000
7075.50   5.56776000
7076.50   5.54772000
7077.50   5.54511000
7078.50   5.54299000
7079.50   5.49481000
7080.50   5.51187000
7081.50   5.54457000
7082.50   5.55828000
7083.50   5.55161000
7084.50   5.56704000
7085.50   5.56253000
7086.50   5.58262000
7087.50   5.62312000
7088.50   5.62587000
7089.50   5.62763000
7090.50   5.58851000
7091.50   5.56463000
7092.50   5.59623000
7093.50   5.67559000
7094.50   5.69916000
7095.50   5.64252000
7096.50   5.59165000
7097.50   5.60802000
7098.50   5.60360000
7099.50   5.60161000
7100.50   5.63097000
7101.50   5.65523000
7102.50   5.63963000
7103.50   5.62586000
7104.50   5.65255000
7105.50   5.68402000
7106.50   5.68952000
7107.50   5.66129000
7108.50   5.65749000
7109.50   5.64230000
7110.50   5.64500000
7111.50   5.66903000
7112.50   5.69414000
7113.50   5.66949000
7114.50   5.64932000
7115.50   5.66329000
7116.50   5.70821000
7117.50   5.74542000
7118.50   5.72866000
7119.50   5.72630000
7120.50   5.72890000
7121.50   5.72141000
7122.50   5.71251000
7123.50   5.71476000
7124.50   5.70699000
7125.50   5.71632000
7126.50   5.75506000
7127.50   5.75264000
7128.50   5.72283000
7129.50   5.69987000
7130.50   5.69840000
7131.50   5.71194000
7132.50   5.69601000
7133.50   5.75087000
7134.50   5.76453000
7135.50   5.73179000
7136.50   5.73133000
7137.50   5.74648000
7138.50   5.74646000
7139.50   5.73782000
7140.50   5.72389000
7141.50   5.70089000
7142.50   5.69061000
7143.50   5.68177000
7144.50   5.68183000
7145.50   5.68525000
7146.50   5.67219000
7147.50   5.65725000
7148.50   5.67122000
7149.50   5.70386000
7150.50   5.73336000
7151.50   5.75109000
7152.50   5.76619000
7153.50   5.75069000
7154.50   5.73547000
7155.50   5.74920000
7156.50   5.71693000
7157.50   5.73320000
7158.50   5.75429000
7159.50   5.73632000
7160.50   5.66631000
7161.50   5.65366000
7162.50   5.69895000
7163.50   5.71777000
7164.50   5.69444000
7165.50   5.68120000
7166.50   5.71112000
7167.50   5.72450000
7168.50   5.74199000
7169.50   5.74952000
7170.50   5.68916000
7171.50   5.77473000
7172.50   5.84839000
7173.50   5.86523000
7174.50   5.81847000
7175.50   5.71989000
7176.50   5.75762000
7177.50   5.83194000
7178.50   5.81215000
7179.50   5.68392000
7180.50   5.74398000
7181.50   5.73251000
7182.50   5.72307000
7183.50   5.71330000
7184.50   5.70095000
7185.50   5.80751000
7186.50   5.86481000
7187.50   5.84770000
7188.50   5.77406000
7189.50   5.69231000
7190.50   5.68251000
7191.50   5.77084000
7192.50   5.83962000
7193.50   5.82810000
7194.50   5.76811000
7195.50   5.74864000
7196.50   5.71706000
7197.50   5.66726000
7198.50   5.64534000
7199.50   5.75057000
7200.50   5.70370000
7201.50   5.70486000
7202.50   5.72189000
7203.50   5.70328000
7204.50   5.68819000
7205.50   5.68766000
7206.50   5.66930000
7207.50   5.61439000
7208.50   5.53935000
7209.50   5.53773000
7210.50   5.53168000
7211.50   5.54235000
7212.50   5.53618000
7213.50   5.47892000
7214.50   5.47587000
7215.50   5.54694000
7216.50   5.59162000
7217.50   5.54796000
7218.50   5.42658000
7219.50   5.45517000
7220.50   5.44402000
7221.50   5.45241000
7222.50   5.48517000
7223.50   5.45308000
7224.50   5.43669000
7225.50   5.42395000
7226.50   5.44102000
7227.50   5.47102000
7228.50   5.42245000
7229.50   5.37583000
7230.50   5.38422000
7231.50   5.47581000
7232.50   5.60887000
7233.50   5.59867000
7234.50   5.57175000
7235.50   5.51326000
7236.50   5.43265000
7237.50   5.36776000
7238.50   5.42829000
7239.50   5.45327000
7240.50   5.47740000
7241.50   5.50248000
7242.50   5.50559000
7243.50   5.45741000
7244.50   5.48495000
7245.50   5.47192000
7246.50   5.41177000
7247.50   5.41708000
7248.50   5.41041000
7249.50   5.39515000
7250.50   5.42723000
7251.50   5.52115000
7252.50   5.61543000
7253.50   5.53644000
7254.50   5.43336000
7255.50   5.37312000
7256.50   5.37745000
7257.50   5.41683000
7258.50   5.41773000
7259.50   5.44934000
7260.50   5.46898000
7261.50   5.44146000
7262.50   5.48210000
7263.50   5.49276000
7264.50   5.50654000
7265.50   5.51152000
7266.50   5.47279000
7267.50   5.46854000
7268.50   5.46430000
7269.50   5.46005000
7270.50   5.45580000
7271.50   5.45156000
7272.50   5.44731000
7273.50   5.44307000
7274.50   5.43882000
7275.50   5.43457000
7276.50   5.43033000
7277.50   5.42608000
7278.50   5.42184000
7279.50   5.41759000
7280.50   5.41334000
7281.50   5.41334000
7282.50   5.42814000
7283.50   5.45859000
7284.50   5.49949000
7285.50   5.51658000
7286.50   5.47405000
7287.50   5.39276000
7288.50   5.34000000
7289.50   5.33903000
7290.50   5.36996000
7291.50   5.38213000
7292.50   5.33968000
7293.50   5.30977000
7294.50   5.32736000
7295.50   5.38010000
7296.50   5.37516000
7297.50   5.32594000
7298.50   5.27842000
7299.50   5.25236000
7300.50   5.24131000
7301.50   5.27564000
7302.50   5.34113000
7303.50   5.36957000
7304.50   5.31963000
7305.50   5.20066000
7306.50   5.16593000
7307.50   5.19401000
7308.50   5.23116000
7309.50   5.24690000
7310.50   5.27475000
7311.50   5.25979000
7312.50   5.23733000
7313.50   5.20340000
7314.50   5.16485000
7315.50   5.19531000
7316.50   5.20656000
7317.50   5.21400000
7318.50   5.20989000
7319.50   5.17899000
7320.50   5.13175000
7321.50   5.09512000
7322.50   5.07037000
7323.50   5.07911000
7324.50   5.13889000
7325.50   5.15958000
7326.50   5.16016000
7327.50   5.14064000
7328.50   5.11989000
7329.50   5.12749000
7330.50   5.14418000
7331.50   5.12878000
7332.50   5.12479000
7333.50   5.14259000
7334.50   5.12641000
7335.50   5.14630000
7336.50   5.13317000
7337.50   5.09074000
7338.50   5.04969000
7339.50   5.05139000
7340.50   5.06872000
7341.50   5.05586000
7342.50   5.04248000
7343.50   5.06717000
7344.50   5.09299000
7345.50   5.05173000
7346.50   5.05332000
7347.50   5.09296000
7348.50   5.09776000
7349.50   5.03265000
7350.50   5.02638000
7351.50   5.02651000
7352.50   5.00840000
7353.50   4.99631000
7354.50   5.04077000
7355.50   5.00931000
7356.50   4.98053000
7357.50   4.99108000
7358.50   4.97606000
7359.50   4.98369000
7360.50   5.02310000
7361.50   5.05061000
7362.50   5.03052000
7363.50   4.96392000
7364.50   4.99511000
7365.50   5.01177000
7366.50   4.98233000
7367.50   4.92987000
7368.50   4.92407000
7369.50   4.93427000
7370.50   4.90385000
7371.50   4.86130000
7372.50   4.86017000
7373.50   4.85267000
7374.50   4.85635000
7375.50   4.87963000
7376.50   4.88705000
7377.50   4.82836000
7378.50   4.80379000
7379.50   4.78723000
7380.50   4.78649000
7381.50   4.79512000
7382.50   4.79266000
7383.50   4.76963000
7384.50   4.73196000
7385.50   4.70806000
7386.50   4.70617000
7387.50   4.69985000
7388.50   4.69056000
7389.50   4.69905000
7390.50   4.72030000
7391.50   4.73061000
7392.50   4.68139000
7393.50   4.61611000
7394.50   4.60071000
7395.50   4.63223000
7396.50   4.66073000
7397.50   4.61483000
7398.50   4.55481000
7399.50   4.54026000
7400.50   4.54957000
7401.50   4.52585000
7402.50   4.49776000
7403.50   4.49150000
7404.50   4.49767000
7405.50   4.48547000
7406.50   4.42513000
7407.50   4.38567000
7408.50   4.39072000
7409.50   4.38677000
7410.50   4.36006000
7411.50   4.35884000
7412.50   4.31941000
7413.50   4.31687000
7414.50   4.32858000
7415.50   4.32530000
7416.50   4.30918000
7417.50   4.25259000
7418.50   4.19365000
7419.50   4.16065000
7420.50   4.15944000
7421.50   4.16470000
7422.50   4.14009000
7423.50   4.11319000
7424.50   4.09558000
7425.50   4.08653000
7426.50   4.07496000
7427.50   4.04906000
7428.50   4.03215000
7429.50   4.02237000
7430.50   4.00358000
7431.50   3.99537000
7432.50   3.95583000
7433.50   3.91863000
7434.50   3.89201000
7435.50   3.85697000
7436.50   3.84918000
7437.50   3.83966000
7438.50   3.82346000
7439.50   3.80483000
7440.50   3.79918000
7441.50   3.77073000
7442.50   3.76443000
7443.50   3.76659000
7444.50   3.75167000
7445.50   3.70260000
7446.50   3.69226000
7447.50   3.67922000
7448.50   3.65449000
7449.50   3.62732000
7450.50   3.61531000
7451.50   3.57904000
7452.50   3.55168000
7453.50   3.53862000
7454.50   3.52692000
7455.50   3.52055000
7456.50   3.48617000
7457.50   3.45435000
7458.50   3.44095000
7459.50   3.44231000
7460.50   3.42543000
7461.50   3.40165000
7462.50   3.37999000
7463.50   3.36532000
7464.50   3.35414000
7465.50   3.33423000
7466.50   3.32310000
7467.50   3.31603000
7468.50   3.30302000
7469.50   3.27555000
7470.50   3.25691000
7471.50   3.24576000
7472.50   3.23741000
7473.50   3.22830000
7474.50   3.21647000
7475.50   3.20688000
7476.50   3.18877000
7477.50   3.16091000
7478.50   3.13337000
7479.50   3.14603000
7480.50   3.15968000
7481.50   3.15645000
7482.50   3.13770000
7483.50   3.12033000
7484.50   3.12085000
7485.50   3.11936000
7486.50   3.12494000
7487.50   3.13008000
7488.50   3.11169000
7489.50   3.09736000
7490.50   3.09521000
7491.50   3.08835000
7492.50   3.07526000
7493.50   3.07694000
7494.50   3.07891000
7495.50   3.07753000
7496.50   3.07856000
7497.50   3.08583000
7498.50   3.10210000
7499.50   3.07604000
7500.50   3.05153000
7501.50   3.04770000
7502.50   3.06447000
7503.50   3.06998000
7504.50   3.06477000
7505.50   3.04964000
7506.50   3.03174000
7507.50   3.02261000
7508.50   3.03907000
7509.50   3.04268000
7510.50   3.04086000
7511.50   3.03752000
7512.50   3.03249000
7513.50   3.04070000
7514.50   3.04566000
7515.50   3.03965000
7516.50   3.02976000
7517.50   3.03606000
7518.50   3.03659000
7519.50   3.03631000
7520.50   3.04229000
7521.50   3.05609000
7522.50   3.06727000
7523.50   3.05814000
7524.50   3.04094000
7525.50   3.04975000
7526.50   3.09537000
7527.50   3.12386000
7528.50   3.13976000
7529.50   3.15003000
7530.50   3.14770000
7531.50   3.13451000
7532.50   3.16634000
7533.50   3.17895000
7534.50   3.18856000
7535.50   3.19543000
7536.50   3.19136000
7537.50   3.19633000
7538.50   3.19682000
7539.50   3.20507000
7540.50   3.22227000
7541.50   3.23425000
7542.50   3.24158000
7543.50   3.27647000
7544.50   3.30206000
7545.50   3.30479000
7546.50   3.31976000
7547.50   3.33216000
7548.50   3.33500000
7549.50   3.33816000
7550.50   3.35154000
7551.50   3.37361000
7552.50   3.39352000
7553.50   3.42754000
7554.50   3.46080000
7555.50   3.46960000
7556.50   3.43358000
7557.50   3.43972000
7558.50   3.46967000
7559.50   3.49405000
7560.50   3.49484000
7561.50   3.52047000
7562.50   3.51228000
7563.50   3.53975000
7564.50   3.58711000
7565.50   3.58434000
7566.50   3.59561000
7567.50   3.60837000
7568.50   3.61501000
7569.50   3.61484000
7570.50   3.61947000
7571.50   3.64744000
7572.50   3.68139000
7573.50   3.69619000
7574.50   3.69540000
7575.50   3.72447000
7576.50   3.73899000
7577.50   3.75854000
7578.50   3.78172000
7579.50   3.80695000
7580.50   3.86262000
7581.50   3.86606000
7582.50   3.83148000
7583.50   3.80525000
7584.50   3.82619000
7585.50   3.87240000
7586.50   3.88162000
7587.50   3.87691000
7588.50   3.87189000
7589.50   3.87333000
7590.50   3.87776000
7591.50   3.88619000
7592.50   3.97911000
7593.50   4.10645000
7594.50   4.11431000
7595.50   4.05968000
7596.50   4.03125000
7597.50   4.05426000
7598.50   4.10360000
7599.50   4.11605000
7600.50   4.06501000
7601.50   4.04554000
7602.50   4.02903000
7603.50   3.99566000
7604.50   4.01567000
7605.50   3.94391000
7606.50   3.91808000
7607.50   3.95263000
7608.50   3.99929000
7609.50   3.96498000
7610.50   3.99698000
7611.50   3.93129000
7612.50   3.89224000
7613.50   4.04318000
7614.50   4.02738000
7615.50   3.95779000
7616.50   3.97426000
7617.50   4.08942000
7618.50   4.21017000
7619.50   4.24775000
7620.50   4.25479000
7621.50   4.30570000
7622.50   4.33967000
7623.50   4.18720000
7624.50   4.19992000
7625.50   4.32116000
7626.50   4.32029000
7627.50   4.17245000
7628.50   4.21448000
7629.50   4.41194000
7630.50   4.39378000
7631.50   4.22577000
7632.50   4.14560000
7633.50   4.42419000
7634.50   4.42298000
7635.50   4.23447000
7636.50   4.14880000
7637.50   4.37464000
7638.50   4.57605000
7639.50   4.42666000
7640.50   4.19274000
7641.50   4.17739000
7642.50   4.51054000
7643.50   4.52332000
7644.50   4.32706000
7645.50   4.23226000
7646.50   4.34426000
7647.50   4.51812000
7648.50   4.55000000
7649.50   4.41519000
7650.50   4.33009000
7651.50   4.40793000
7652.50   4.55514000
7653.50   4.53992000
7654.50   4.43304000
7655.50   4.36337000
7656.50   4.42381000
7657.50   4.62434000
7658.50   4.60258000
7659.50   4.51989000
7660.50   4.47351000
7661.50   4.50445000
7662.50   4.56228000
7663.50   4.60678000
7664.50   4.55216000
7665.50   4.47771000
7666.50   4.50431000
7667.50   4.57708000
7668.50   4.65661000
7669.50   4.67544000
7670.50   4.65128000
7671.50   4.64900000
7672.50   4.60724000
7673.50   4.65316000
7674.50   4.72231000
7675.50   4.74704000
7676.50   4.68854000
7677.50   4.67794000
7678.50   4.64575000
7679.50   4.65956000
7680.50   4.74192000
7681.50   4.81383000
7682.50   4.73973000
7683.50   4.66688000
7684.50   4.67989000
7685.50   4.77800000
7686.50   4.83140000
7687.50   4.88603000
7688.50   4.90740000
7689.50   4.84535000
7690.50   4.71544000
7691.50   4.74743000
7692.50   4.81086000
7693.50   4.84940000
7694.50   4.83727000
7695.50   4.79039000
7696.50   4.77729000
7697.50   4.78936000
7698.50   4.80905000
7699.50   4.83271000
7700.50   4.86576000
7701.50   4.88108000
7702.50   4.90505000
7703.50   4.92592000
7704.50   4.94231000
7705.50   4.96296000
7706.50   4.93970000
7707.50   4.90703000
7708.50   4.91222000
7709.50   4.96363000
7710.50   4.99964000
7711.50   4.96195000
7712.50   4.93961000
7713.50   4.94698000
7714.50   4.96749000
7715.50   4.99940000
7716.50   4.99273000
7717.50   4.99640000
7718.50   5.00624000
7719.50   5.00660000
7720.50   5.04575000
7721.50   5.06458000
7722.50   5.04159000
7723.50   5.00246000
7724.50   4.99612000
7725.50   5.01317000
7726.50   5.03599000
7727.50   5.05730000
7728.50   5.07754000
7729.50   5.10179000
7730.50   5.12303000
7731.50   5.12430000
7732.50   5.11148000
7733.50   5.10804000
7734.50   5.15080000
7735.50   5.15339000
7736.50   5.17115000
7737.50   5.16533000
7738.50   5.11553000
7739.50   5.09932000
7740.50   5.06494000
7741.50   5.09951000
7742.50   5.14343000
7743.50   5.12104000
7744.50   5.07854000
7745.50   5.12174000
7746.50   5.17488000
7747.50   5.17325000
7748.50   5.09977000
7749.50   5.06296000
7750.50   5.07567000
7751.50   5.10380000
7752.50   5.11829000
7753.50   5.10992000
7754.50   5.17356000
7755.50   5.18807000
7756.50   5.15896000
7757.50   5.13047000
7758.50   5.16050000
7759.50   5.16272000
7760.50   5.18200000
7761.50   5.21099000
7762.50   5.22029000
7763.50   5.16972000
7764.50   5.14389000
7765.50   5.18700000
7766.50   5.23674000
7767.50   5.23589000
7768.50   5.24162000
7769.50   5.23138000
7770.50   5.21520000
7771.50   5.21613000
7772.50   5.24349000
7773.50   5.24002000
7774.50   5.20345000
7775.50   5.16733000
7776.50   5.16361000
7777.50   5.20236000
7778.50   5.22724000
7779.50   5.22982000
7780.50   5.24799000
7781.50   5.26614000
7782.50   5.22664000
7783.50   5.21935000
7784.50   5.21216000
7785.50   5.21198000
7786.50   5.22910000
7787.50   5.26618000
7788.50   5.26115000
7789.50   5.28867000
7790.50   5.32339000
7791.50   5.31167000
7792.50   5.20622000
7793.50   5.26816000
7794.50   5.27871000
7795.50   5.23538000
7796.50   5.21532000
7797.50   5.25213000
7798.50   5.29910000
7799.50   5.32259000
7800.50   5.31961000
7801.50   5.31143000
7802.50   5.31787000
7803.50   5.28693000
7804.50   5.24657000
7805.50   5.22713000
7806.50   5.24432000
7807.50   5.26099000
7808.50   5.29870000
7809.50   5.31551000
7810.50   5.29328000
7811.50   5.26330000
7812.50   5.28673000
7813.50   5.35212000
7814.50   5.38416000
7815.50   5.34703000
7816.50   5.29070000
7817.50   5.26941000
7818.50   5.24079000
7819.50   5.23497000
7820.50   5.27533000
7821.50   5.31184000
7822.50   5.33094000
7823.50   5.33262000
7824.50   5.30861000
7825.50   5.26678000
7826.50   5.27420000
7827.50   5.29276000
7828.50   5.29324000
7829.50   5.27875000
7830.50   5.27219000
7831.50   5.29298000
7832.50   5.29475000
7833.50   5.27843000
7834.50   5.27176000
7835.50   5.31432000
7836.50   5.28653000
7837.50   5.26887000
7838.50   5.26245000
7839.50   5.25061000
7840.50   5.21419000
7841.50   5.20662000
7842.50   5.24514000
7843.50   5.28257000
7844.50   5.27150000
7845.50   5.19524000
7846.50   5.18416000
7847.50   5.23353000
7848.50   5.25376000
7849.50   5.18604000
7850.50   5.15591000
7851.50   5.16288000
7852.50   5.16252000
7853.50   5.16340000
7854.50   5.19390000
7855.50   5.20199000
7856.50   5.17740000
7857.50   5.14300000
7858.50   5.12530000
7859.50   5.14483000
7860.50   5.20830000
7861.50   5.19247000
7862.50   5.14070000
7863.50   5.10993000
7864.50   5.12574000
7865.50   5.08249000
7866.50   5.05761000
7867.50   5.06969000
7868.50   5.10174000
7869.50   5.10762000
7870.50   5.10878000
7871.50   5.08998000
7872.50   5.08653000
7873.50   5.11142000
7874.50   5.09140000
7875.50   5.07378000
7876.50   5.06966000
7877.50   5.06531000
7878.50   5.04645000
7879.50   5.04940000
7880.50   5.04889000
7881.50   5.04083000
7882.50   5.04662000
7883.50   5.08367000
7884.50   5.04953000
7885.50   5.04914000
7886.50   5.10057000
7887.50   5.11826000
7888.50   4.97497000
7889.50   4.91971000
7890.50   4.92801000
7891.50   4.95190000
7892.50   4.97044000
7893.50   5.00518000
7894.50   4.98490000
7895.50   4.92633000
7896.50   4.89761000
7897.50   4.92817000
7898.50   4.95264000
7899.50   4.89921000
7900.50   4.88916000
7901.50   4.91894000
7902.50   4.93091000
7903.50   4.86348000
7904.50   4.83427000
7905.50   4.83839000
7906.50   4.84769000
7907.50   4.83763000
7908.50   4.87282000
7909.50   4.87420000
7910.50   4.86241000
7911.50   4.84376000
7912.50   4.81557000
7913.50   4.79870000
7914.50   4.85810000
7915.50   4.91474000
7916.50   4.91232000
7917.50   4.85498000
7918.50   4.81811000
7919.50   4.76720000
7920.50   4.71895000
7921.50   4.68981000
7922.50   4.67899000
7923.50   4.68655000
7924.50   4.71061000
7925.50   4.72917000
7926.50   4.71982000
7927.50   4.66959000
7928.50   4.59792000
7929.50   4.56500000
7930.50   4.55043000
7931.50   4.51553000
7932.50   4.51114000
7933.50   4.55506000
7934.50   4.51425000
7935.50   4.42992000
7936.50   4.43280000
7937.50   4.51657000
7938.50   4.54302000
7939.50   4.55148000
7940.50   4.54766000
7941.50   4.49898000
7942.50   4.44071000
7943.50   4.42155000
7944.50   4.42193000
7945.50   4.41692000
7946.50   4.39216000
7947.50   4.32266000
7948.50   4.27044000
7949.50   4.26238000
7950.50   4.28338000
7951.50   4.26677000
7952.50   4.25836000
7953.50   4.17996000
7954.50   4.09175000
7955.50   4.07728000
7956.50   4.14993000
7957.50   4.14935000
7958.50   4.12778000
7959.50   4.09939000
7960.50   4.06300000
7961.50   4.04379000
7962.50   4.03627000
7963.50   4.02449000
7964.50   3.98164000
7965.50   3.89754000
7966.50   3.87436000
7967.50   3.87934000
7968.50   3.90885000
7969.50   3.92182000
7970.50   3.85312000
7971.50   3.80910000
7972.50   3.82739000
7973.50   3.83332000
7974.50   3.79260000
7975.50   3.76688000
7976.50   3.75170000
7977.50   3.74785000
7978.50   3.73067000
7979.50   3.69491000
7980.50   3.69176000
7981.50   3.67805000
7982.50   3.65680000
7983.50   3.64842000
7984.50   3.65865000
7985.50   3.62973000
7986.50   3.60712000
7987.50   3.60416000
7988.50   3.60058000
7989.50   3.56869000
7990.50   3.54891000
7991.50   3.52848000
7992.50   3.51875000
7993.50   3.51502000
7994.50   3.50156000
7995.50   3.52007000
7996.50   3.51125000
7997.50   3.48857000
7998.50   3.47583000
7999.50   3.49012000
8000.50   3.48588000
8001.50   3.48080000
8002.50   3.47678000
8003.50   3.46228000
8004.50   3.41342000
8005.50   3.40736000
8006.50   3.41265000
8007.50   3.41681000
8008.50   3.41188000
8009.50   3.38974000
8010.50   3.39008000
8011.50   3.36526000
8012.50   3.32390000
8013.50   3.29874000
8014.50   3.32707000
8015.50   3.34384000
8016.50   3.31344000
8017.50   3.26461000
8018.50   3.25614000
8019.50   3.26633000
8020.50   3.23568000
8021.50   3.20998000
8022.50   3.21065000
8023.50   3.21567000
8024.50   3.21955000
8025.50   3.19031000
8026.50   3.17079000
8027.50   3.17333000
8028.50   3.14737000
8029.50   3.14382000
8030.50   3.12533000
8031.50   3.11991000
8032.50   3.13953000
8033.50   3.12302000
8034.50   3.08472000
8035.50   3.06844000
8036.50   3.06204000
8037.50   3.04660000
8038.50   3.06564000
8039.50   3.06312000
8040.50   3.05438000
8041.50   3.03735000
8042.50   3.01367000
8043.50   3.04245000
8044.50   3.03155000
8045.50   3.03422000
8046.50   3.04899000
8047.50   3.03491000
8048.50   3.02649000
8049.50   3.04732000
8050.50   3.05694000
8051.50   3.02865000
8052.50   2.96871000
8053.50   2.95361000
8054.50   2.93504000
8055.50   2.91869000
8056.50   2.91314000
8057.50   2.91742000
8058.50   2.93694000
8059.50   2.95361000
8060.50   2.94863000
8061.50   2.92328000
8062.50   2.91372000
8063.50   2.91696000
8064.50   2.90854000
8065.50   2.89204000
8066.50   2.87935000
8067.50   2.86894000
8068.50   2.84987000
8069.50   2.85049000
8070.50   2.85537000
8071.50   2.83349000
8072.50   2.86411000
8073.50   2.85608000
8074.50   2.82483000
8075.50   2.80516000
8076.50   2.83053000
8077.50   2.82648000
8078.50   2.80506000
8079.50   2.76167000
8080.50   2.72138000
8081.50   2.73984000
8082.50   2.77575000
8083.50   2.77414000
8084.50   2.75291000
8085.50   2.73954000
8086.50   2.73394000
8087.50   2.72196000
8088.50   2.73808000
8089.50   2.75610000
8090.50   2.73874000
8091.50   2.68794000
8092.50   2.69551000
8093.50   2.69236000
8094.50   2.67789000
8095.50   2.68323000
8096.50   2.69025000
8097.50   2.66635000
8098.50   2.64404000
8099.50   2.63587000
8100.50   2.63228000
8101.50   2.63964000
8102.50   2.63581000
8103.50   2.62756000
8104.50   2.62019000
8105.50   2.61469000
8106.50   2.65217000
8107.50   2.65436000
8108.50   2.62363000
8109.50   2.59683000
8110.50   2.63133000
8111.50   2.62926000
8112.50   2.59446000
8113.50   2.56619000
8114.50   2.57131000
8115.50   2.57833000
8116.50   2.58115000
8117.50   2.57974000
8118.50   2.57458000
8119.50   2.56494000
8120.50   2.54161000
8121.50   2.53691000
8122.50   2.54940000
8123.50   2.56153000
8124.50   2.55328000
8125.50   2.53822000
8126.50   2.53081000
8127.50   2.53846000
8128.50   2.54700000
8129.50   2.53209000
8130.50   2.54401000
8131.50   2.57530000
8132.50   2.59809000
8133.50   2.58799000
8134.50   2.53691000
8135.50   2.48913000
8136.50   2.49122000
8137.50   2.51999000
8138.50   2.54248000
8139.50   2.54714000
8140.50   2.52821000
8141.50   2.49799000
8142.50   2.46498000
8143.50   2.44494000
8144.50   2.48639000
8145.50   2.50598000
8146.50   2.51026000
8147.50   2.51342000
8148.50   2.52707000
8149.50   2.52387000
8150.50   2.53643000
8151.50   2.53759000
8152.50   2.51308000
8153.50   2.47010000
8154.50   2.46054000
8155.50   2.48027000
8156.50   2.48131000
8157.50   2.45803000
8158.50   2.45341000
8159.50   2.47843000
8160.50   2.48726000
8161.50   2.47118000
8162.50   2.44781000
8163.50   2.46851000
8164.50   2.42854000
8165.50   2.41335000
8166.50   2.44121000
8167.50   2.48220000
8168.50   2.44684000
8169.50   2.36927000
8170.50   2.33837000
8171.50   2.36190000
8172.50   2.39753000
8173.50   2.40163000
8174.50   2.41460000
8175.50   2.42954000
8176.50   2.42907000
8177.50   2.40182000
8178.50   2.40088000
8179.50   2.39983000
8180.50   2.38649000
8181.50   2.35613000
8182.50   2.31576000
8183.50   2.33473000
8184.50   2.35398000
8185.50   2.36318000
8186.50   2.36150000
8187.50   2.34876000
8188.50   2.33146000
8189.50   2.34071000
8190.50   2.37458000
8191.50   2.39602000
8192.50   2.32543000
8193.50   2.29008000
8194.50   2.34023000
8195.50   2.40045000
8196.50   2.38793000
8197.50   2.34270000
8198.50   2.33686000
8199.50   2.34644000
8200.50   2.35536000
8201.50   2.35777000
8202.50   2.35916000
8203.50   2.36574000
8204.50   2.35237000
8205.50   2.33422000
8206.50   2.34464000
8207.50   2.35490000
8208.50   2.33085000
8209.50   2.32050000
8210.50   2.32477000
8211.50   2.29346000
8212.50   2.30453000
8213.50   2.31079000
8214.50   2.31841000
8215.50   2.33510000
8216.50   2.36081000
8217.50   2.32083000
8218.50   2.30176000
8219.50   2.30931000
8220.50   2.32797000
8221.50   2.35653000
8222.50   2.39574000
8223.50   2.41636000
8224.50   2.43612000
8225.50   2.47614000
8226.50   2.50332000
8227.50   2.44687000
8228.50   2.45799000
8229.50   2.50067000
8230.50   2.45837000
8231.50   2.42446000
8232.50   2.44622000
8233.50   2.45986000
8234.50   2.43004000
8235.50   2.36751000
8236.50   2.32805000
8237.50   2.36073000
8238.50   2.38609000
8239.50   2.38642000
8240.50   2.43761000
8241.50   2.42773000
8242.50   2.40170000
8243.50   2.39926000
8244.50   2.43411000
8245.50   2.47689000
8246.50   2.44935000
8247.50   2.40996000
8248.50   2.39711000
8249.50   2.42404000
8250.50   2.45204000
8251.50   2.42557000
8252.50   2.43422000
8253.50   2.47865000
8254.50   2.50550000
8255.50   2.44798000
8256.50   2.41905000
8257.50   2.46810000
8258.50   2.54207000
8259.50   2.54234000
8260.50   2.52879000
8261.50   2.53696000
8262.50   2.54051000
8263.50   2.53131000
8264.50   2.52552000
8265.50   2.54273000
8266.50   2.51045000
8267.50   2.48680000
8268.50   2.51536000
8269.50   2.57231000
8270.50   2.54312000
8271.50   2.53635000
8272.50   2.55971000
8273.50   2.58199000
8274.50   2.56158000
8275.50   2.58160000
8276.50   2.60855000
8277.50   2.61876000
8278.50   2.60728000
8279.50   2.61624000
8280.50   2.56490000
8281.50   2.54404000
8282.50   2.56125000
8283.50   2.57907000
8284.50   2.60699000
8285.50   2.64446000
8286.50   2.63344000
8287.50   2.58403000
8288.50   2.56230000
8289.50   2.58748000
8290.50   2.63179000
8291.50   2.65652000
8292.50   2.64453000
8293.50   2.61150000
8294.50   2.60093000
8295.50   2.63309000
8296.50   2.67907000
8297.50   2.70299000
8298.50   2.68031000
8299.50   2.67423000
8300.50   2.66762000
8301.50   2.68968000
8302.50   2.74570000
8303.50   2.76279000
8304.50   2.68679000
8305.50   2.65756000
8306.50   2.69939000
8307.50   2.75915000
8308.50   2.73982000
8309.50   2.71952000
8310.50   2.70483000
8311.50   2.70448000
8312.50   2.72997000
8313.50   2.78939000
8314.50   2.78073000
8315.50   2.76511000
8316.50   2.77178000
8317.50   2.77813000
8318.50   2.82330000
8319.50   2.84906000
8320.50   2.80100000
8321.50   2.70944000
8322.50   2.70684000
8323.50   2.75087000
8324.50   2.78417000
8325.50   2.79819000
8326.50   2.79944000
8327.50   2.79046000
8328.50   2.75280000
8329.50   2.74152000
8330.50   2.76716000
8331.50   2.80594000
8332.50   2.79922000
8333.50   2.79977000
8334.50   2.79327000
8335.50   2.81263000
8336.50   2.87881000
8337.50   2.84525000
8338.50   2.85723000
8339.50   2.87807000
8340.50   2.88941000
8341.50   2.89864000
8342.50   2.91959000
8343.50   2.89761000
8344.50   2.88429000
8345.50   2.89601000
8346.50   2.89551000
8347.50   2.87884000
8348.50   2.87358000
8349.50   2.89531000
8350.50   2.93546000
8351.50   2.95132000
8352.50   2.91643000
8353.50   2.92099000
8354.50   2.97750000
8355.50   3.03997000
8356.50   3.00161000
8357.50   2.97036000
8358.50   2.96947000
8359.50   3.01243000
8360.50   3.07744000
8361.50   3.07414000
8362.50   3.08399000
8363.50   3.07636000
8364.50   3.05106000
8365.50   3.03360000
8366.50   3.07681000
8367.50   3.07508000
8368.50   3.08925000
8369.50   3.12183000
8370.50   3.11675000
8371.50   3.11998000
8372.50   3.10295000
8373.50   3.10947000
8374.50   3.13740000
8375.50   3.11021000
8376.50   3.03742000
8377.50   3.07239000
8378.50   3.10131000
8379.50   3.04379000
8380.50   3.02217000
8381.50   3.08510000
8382.50   3.13914000
8383.50   3.14233000
8384.50   3.10367000
8385.50   3.08128000
8386.50   3.11913000
8387.50   3.15900000
8388.50   3.18597000
8389.50   3.20628000
8390.50   3.17908000
8391.50   3.20212000
8392.50   3.23419000
8393.50   3.25063000
8394.50   3.24927000
8395.50   3.21497000
8396.50   3.22030000
8397.50   3.24732000
8398.50   3.28228000
8399.50   3.33309000
8400.50   3.33574000
8401.50   3.25899000
8402.50   3.24440000
8403.50   3.32638000
8404.50   3.31186000
8405.50   3.35024000
8406.50   3.39890000
8407.50   3.43980000
8408.50   3.46932000
8409.50   3.51647000
8410.50   3.47194000
8411.50   3.48355000
8412.50   3.54276000
8413.50   3.56878000
8414.50   3.51958000
8415.50   3.46317000
8416.50   3.40954000
8417.50   3.36966000
8418.50   3.35224000
8419.50   3.35787000
8420.50   3.35774000
8421.50   3.38669000
8422.50   3.43471000
8423.50   3.45363000
8424.50   3.48071000
8425.50   3.51182000
8426.50   3.53475000
8427.50   3.54301000
8428.50   3.54194000
8429.50   3.59091000
8430.50   3.58411000
8431.50   3.53773000
8432.50   3.50030000
8433.50   3.50788000
8434.50   3.53556000
8435.50   3.55200000
8436.50   3.54504000
8437.50   3.53122000
8438.50   3.57956000
8439.50   3.58708000
8440.50   3.58578000
8441.50   3.60723000
8442.50   3.66502000
8443.50   3.70523000
8444.50   3.73042000
8445.50   3.72688000
8446.50   3.70545000
8447.50   3.69636000
8448.50   3.68936000
8449.50   3.70034000
8450.50   3.71557000
8451.50   3.72714000
8452.50   3.73671000
8453.50   3.77775000
8454.50   3.77622000
8455.50   3.76930000
8456.50   3.79554000
8457.50   3.85079000
8458.50   3.85754000
8459.50   3.85273000
8460.50   3.86194000
8461.50   3.88357000
8462.50   3.86891000
8463.50   3.86074000
8464.50   3.88404000
8465.50   3.90330000
8466.50   3.88144000
8467.50   3.86480000
8468.50   3.85590000
8469.50   3.86002000
8470.50   3.86855000
8471.50   3.86821000
8472.50   3.87741000
8473.50   3.88938000
8474.50   3.88007000
8475.50   3.86622000
8476.50   3.89111000
8477.50   3.90511000
8478.50   3.91439000
8479.50   3.92399000
8480.50   3.93816000
8481.50   3.95881000
8482.50   3.95705000
8483.50   3.95285000
8484.50   3.97247000
8485.50   4.00845000
8486.50   3.99742000
8487.50   3.96209000
8488.50   3.94549000
8489.50   3.93081000
8490.50   3.89806000
8491.50   3.86859000
8492.50   3.88327000
8493.50   3.91257000
8494.50   3.92095000
8495.50   3.90148000
8496.50   3.94037000
8497.50   3.94405000
8498.50   3.92965000
8499.50   3.91653000
8500.50   3.91514000
8501.50   3.92185000
8502.50   3.88907000
8503.50   3.87519000
8504.50   3.89154000
8505.50   3.90053000
8506.50   3.91215000
8507.50   3.91792000
8508.50   3.92648000
8509.50   3.94029000
8510.50   3.94948000
8511.50   3.94302000
8512.50   3.94509000
8513.50   3.93916000
8514.50   3.91676000
8515.50   3.91550000
8516.50   3.91005000
8517.50   3.91616000
8518.50   3.91759000
8519.50   3.90586000
8520.50   3.93577000
8521.50   3.92711000
8522.50   3.91437000
8523.50   3.91609000
8524.50   3.92653000
8525.50   3.91294000
8526.50   3.90190000
8527.50   3.92893000
8528.50   3.96109000
8529.50   3.93115000
8530.50   3.97095000
8531.50   3.99489000
8532.50   4.02140000
8533.50   4.05126000
8534.50   4.04706000
8535.50   4.02395000
8536.50   4.03270000
8537.50   4.04813000
8538.50   4.03572000
8539.50   3.98408000
8540.50   3.96163000
8541.50   3.96082000
8542.50   3.96730000
8543.50   3.96890000
8544.50   3.97973000
8545.50   3.95237000
8546.50   3.94519000
8547.50   3.95421000
8548.50   3.94649000
8549.50   3.92667000
8550.50   3.92909000
8551.50   3.93211000
8552.50   3.92785000
8553.50   3.92413000
8554.50   3.95556000
8555.50   3.98645000
8556.50   4.03108000
8557.50   4.06175000
8558.50   4.01513000
8559.50   4.00780000
8560.50   4.00154000
8561.50   3.99958000
8562.50   4.00593000
8563.50   4.02752000
8564.50   4.05116000
8565.50   4.06987000
8566.50   4.06653000
8567.50   4.04310000
8568.50   4.04383000
8569.50   4.04626000
8570.50   4.02720000
8571.50   4.01373000
8572.50   4.02798000
8573.50   4.02885000
8574.50   4.01361000
8575.50   4.02952000
8576.50   4.05424000
8577.50   4.03880000
8578.50   4.01064000
8579.50   4.01239000
8580.50   4.02973000
8581.50   4.03867000
8582.50   4.02326000
8583.50   4.04110000
8584.50   4.00361000
8585.50   3.97262000
8586.50   3.98408000
8587.50   4.01400000
8588.50   4.00014000
8589.50   3.95133000
8590.50   3.93887000
8591.50   3.98133000
8592.50   3.99470000
8593.50   3.98028000
8594.50   3.99110000
8595.50   4.00168000
8596.50   3.98951000
8597.50   4.00428000
8598.50   3.99652000
8599.50   3.99905000
8600.50   3.99942000
8601.50   3.97747000
8602.50   3.98407000
8603.50   3.98795000
8604.50   3.98061000
8605.50   3.97250000
8606.50   3.98013000
8607.50   3.96099000
8608.50   3.97638000
8609.50   3.99194000
8610.50   3.98167000
8611.50   3.94820000
8612.50   3.95991000
8613.50   3.98075000
8614.50   3.98781000
8615.50   3.96861000
8616.50   3.91921000
8617.50   3.88053000
8618.50   3.85673000
8619.50   3.83792000
8620.50   3.81466000
8621.50   3.79370000
8622.50   3.75618000
8623.50   3.73506000
8624.50   3.74199000
8625.50   3.77091000
8626.50   3.80363000
8627.50   3.78785000
8628.50   3.74808000
8629.50   3.73353000
8630.50   3.77878000
8631.50   3.82102000
8632.50   3.83666000
8633.50   3.82103000
8634.50   3.79674000
8635.50   3.79932000
8636.50   3.81094000
8637.50   3.82868000
8638.50   3.85593000
8639.50   3.87257000
8640.50   3.84391000
8641.50   3.80232000
8642.50   3.77874000
8643.50   3.78408000
8644.50   3.80317000
8645.50   3.78793000
8646.50   3.76615000
8647.50   3.75275000
8648.50   3.74808000
8649.50   3.74279000
8650.50   3.71534000
8651.50   3.73302000
8652.50   3.75489000
8653.50   3.75153000
8654.50   3.71636000
8655.50   3.69830000
8656.50   3.67284000
8657.50   3.66118000
8658.50   3.66682000
8659.50   3.67436000
8660.50   3.66162000
8661.50   3.63997000
8662.50   3.62214000
8663.50   3.61524000
8664.50   3.62309000
8665.50   3.62255000
8666.50   3.64144000
8667.50   3.64494000
8668.50   3.62607000
8669.50   3.62691000
8670.50   3.61961000
8671.50   3.62306000
8672.50   3.61832000
8673.50   3.58809000
8674.50   3.53381000
8675.50   3.53209000
8676.50   3.50185000
8677.50   3.46453000
8678.50   3.45663000
8679.50   3.44559000
8680.50   3.43498000
8681.50   3.42309000
8682.50   3.40644000
8683.50   3.38673000
8684.50   3.38705000
8685.50   3.41906000
8686.50   3.45211000
8687.50   3.48123000
8688.50   3.51424000
8689.50   3.53883000
8690.50   3.53355000
8691.50   3.50383000
8692.50   3.46665000
8693.50   3.44172000
8694.50   3.41661000
8695.50   3.40383000
8696.50   3.39164000
8697.50   3.37640000
8698.50   3.36321000
8699.50   3.34921000
8700.50   3.35239000
8701.50   3.35167000
8702.50   3.32597000
8703.50   3.28800000
8704.50   3.30194000
8705.50   3.30039000
8706.50   3.27791000
8707.50   3.25606000
8708.50   3.26197000
8709.50   3.25840000
8710.50   3.23586000
8711.50   3.20255000
8712.50   3.18231000
8713.50   3.24033000
8714.50   3.20701000
8715.50   3.19239000
8716.50   3.22503000
8717.50   3.24366000
8718.50   3.27896000
8719.50   3.28490000
8720.50   3.27433000
8721.50   3.26275000
8722.50   3.25507000
8723.50   3.22411000
8724.50   3.21016000
8725.50   3.20683000
8726.50   3.20619000
8727.50   3.20910000
8728.50   3.20873000
8729.50   3.19685000
8730.50   3.18010000
8731.50   3.17028000
8732.50   3.17326000
8733.50   3.17292000
8734.50   3.16571000
8735.50   3.16092000
8736.50   3.16673000
8737.50   3.16687000
8738.50   3.16598000
8739.50   3.15699000
8740.50   3.15326000
8741.50   3.17150000
8742.50   3.18062000
8743.50   3.18520000
8744.50   3.18940000
8745.50   3.18772000
8746.50   3.17174000
8747.50   3.15914000
8748.50   3.16642000
8749.50   3.15961000
8750.50   3.12835000
8751.50   3.10403000
8752.50   3.07380000
8753.50   3.05533000
8754.50   3.03737000
8755.50   3.01141000
8756.50   2.99768000
8757.50   3.00964000
8758.50   3.02696000
8759.50   3.03778000
8760.50   3.03938000
8761.50   3.04823000
8762.50   3.05472000
8763.50   3.05737000
8764.50   3.04479000
8765.50   3.00798000
8766.50   2.98287000
8767.50   2.95545000
8768.50   2.94940000
8769.50   2.95783000
8770.50   2.94877000
8771.50   2.93404000
8772.50   2.96873000
8773.50   2.99734000
8774.50   2.99111000
8775.50   2.98227000
8776.50   2.98934000
8777.50   2.98912000
8778.50   2.97193000
8779.50   2.94260000
8780.50   2.91611000
8781.50   2.91078000
8782.50   2.90752000
8783.50   2.90075000
8784.50   2.89557000
8785.50   2.90898000
8786.50   2.89490000
8787.50   2.88186000
8788.50   2.88550000
8789.50   2.89921000
8790.50   2.87590000
8791.50   2.86106000
8792.50   2.86419000
8793.50   2.87688000
8794.50   2.88042000
8795.50   2.85934000
8796.50   2.86822000
8797.50   2.88330000
8798.50   2.88177000
8799.50   2.85730000
8800.50   2.85796000
8801.50   2.85592000
8802.50   2.84454000
8803.50   2.83406000
8804.50   2.84607000
8805.50   2.87862000
8806.50   2.90648000
8807.50   2.92091000
8808.50   2.92686000
8809.50   2.94715000
8810.50   2.98313000
8811.50   2.96011000
8812.50   2.93565000
8813.50   2.97782000
8814.50   3.00509000
8815.50   3.01217000
8816.50   2.99958000
8817.50   3.00655000
8818.50   3.05678000
8819.50   2.99834000
8820.50   3.00228000
8821.50   3.01595000
8822.50   2.99414000
8823.50   2.93347000
8824.50   2.98863000
8825.50   3.01012000
8826.50   3.03249000
8827.50   3.05010000
8828.50   2.99379000
8829.50   2.93250000
8830.50   2.94938000
8831.50   2.99087000
8832.50   3.01427000
8833.50   3.05184000
8834.50   3.02306000
8835.50   2.96826000
8836.50   2.97486000
8837.50   3.06816000
8838.50   3.09680000
8839.50   3.06674000
8840.50   3.03102000
8841.50   3.01410000
8842.50   3.01887000
8843.50   3.06061000
8844.50   3.05745000
8845.50   3.04378000
8846.50   3.04300000
8847.50   3.05410000
8848.50   3.02928000
8849.50   3.04841000
8850.50   3.07136000
8851.50   3.07569000
8852.50   3.07310000
8853.50   3.04375000
8854.50   3.07137000
8855.50   3.08894000
8856.50   3.06375000
8857.50   3.04975000
8858.50   3.06208000
8859.50   3.06967000
8860.50   3.06417000
8861.50   3.05349000
8862.50   3.06762000
8863.50   3.06036000
8864.50   3.04876000
8865.50   3.05579000
8866.50   3.08159000
8867.50   3.07094000
8868.50   3.11267000
8869.50   3.13924000
8870.50   3.12184000
8871.50   3.06979000
8872.50   3.03966000
8873.50   3.02501000
8874.50   3.04143000
8875.50   3.05470000
8876.50   3.01373000
8877.50   3.01308000
8878.50   2.98665000
8879.50   2.98932000
8880.50   3.01718000
8881.50   2.99537000
8882.50   2.96137000
8883.50   2.98824000
8884.50   3.02217000
8885.50   3.02327000
8886.50   3.03104000
8887.50   2.99867000
8888.50   2.94965000
8889.50   2.91399000
8890.50   2.90604000
8891.50   2.89517000
8892.50   2.94701000
8893.50   2.98301000
8894.50   2.97717000
8895.50   2.93486000
8896.50   2.83692000
8897.50   2.89831000
8898.50   2.93060000
8899.50   2.89322000
8900.50   2.85910000
8901.50   2.87598000
8902.50   2.87506000
8903.50   2.87945000
8904.50   2.88719000
8905.50   2.86543000
8906.50   2.84565000
8907.50   2.82975000
8908.50   2.80858000
8909.50   2.79877000
8910.50   2.85762000
8911.50   2.84204000
8912.50   2.79257000
8913.50   2.78045000
8914.50   2.81580000
8915.50   2.76409000
8916.50   2.73811000
8917.50   2.73543000
8918.50   2.72636000
8919.50   2.69700000
8920.50   2.71706000
8921.50   2.70821000
8922.50   2.73340000
8923.50   2.75250000
8924.50   2.70118000
8925.50   2.67198000
8926.50   2.67066000
8927.50   2.70596000
8928.50   2.72442000
8929.50   2.65951000
8930.50   2.65411000
8931.50   2.66651000
8932.50   2.70378000
8933.50   2.74587000
8934.50   2.73824000
8935.50   2.66212000
8936.50   2.65470000
8937.50   2.67571000
8938.50   2.68170000
8939.50   2.68639000
8940.50   2.66072000
8941.50   2.63559000
8942.50   2.62992000
8943.50   2.64103000
8944.50   2.64149000
8945.50   2.59547000
8946.50   2.58469000
8947.50   2.59624000
8948.50   2.59736000
8949.50   2.64800000
8950.50   2.66094000
8951.50   2.64335000
8952.50   2.60328000
8953.50   2.55556000
8954.50   2.55642000
8955.50   2.53710000
8956.50   2.55615000
8957.50   2.60366000
8958.50   2.60244000
8959.50   2.55941000
8960.50   2.51343000
8961.50   2.51729000
8962.50   2.56989000
8963.50   2.59967000
8964.50   2.57479000
8965.50   2.54212000
8966.50   2.53283000
8967.50   2.55659000
8968.50   2.59733000
8969.50   2.58821000
8970.50   2.58357000
8971.50   2.57550000
8972.50   2.54400000
8973.50   2.49534000
8974.50   2.46480000
8975.50   2.49284000
8976.50   2.56041000
8977.50   2.61020000
8978.50   2.57838000
8979.50   2.51437000
8980.50   2.47500000
8981.50   2.48066000
8982.50   2.52296000
8983.50   2.63909000
8984.50   2.66017000
8985.50   2.53674000
8986.50   2.53777000
8987.50   2.53880000
8988.50   2.53984000
8989.50   2.54087000
8990.50   2.54190000
8991.50   2.54293000
8992.50   2.54396000
8993.50   2.54500000
8994.50   2.54500000
8995.50   2.59515000
8996.50   2.62424000
8997.50   2.60984000
8998.50   2.56294000
8999.50   2.52032000
9000.50   2.49222000
9001.50   2.47686000
9002.50   2.48447000
9003.50   2.51203000
9004.50   2.51530000
9005.50   2.49889000
9006.50   2.50098000
9007.50   2.55355000
9008.50   2.57717000
9009.50   2.56617000
9010.50   2.54072000
9011.50   2.53647000
9012.50   2.58209000
9013.50   2.60810000
9014.50   2.58316000
9015.50   2.52492000
9016.50   2.49657000
9017.50   2.53947000
9018.50   2.59978000
9019.50   2.62309000
9020.50   2.59765000
9021.50   2.57861000
9022.50   2.57866000
9023.50   2.54304000
9024.50   2.50891000
9025.50   2.52338000
9026.50   2.57313000
9027.50   2.61336000
9028.50   2.63063000
9029.50   2.62994000
9030.50   2.63275000
9031.50   2.68227000
9032.50   2.66260000
9033.50   2.62856000
9034.50   2.61223000
9035.50   2.61676000
9036.50   2.62932000
9037.50   2.68140000
9038.50   2.71485000
9039.50   2.70324000
9040.50   2.66687000
9041.50   2.65000000
9042.50   2.61583000
9043.50   2.61625000
9044.50   2.65892000
9045.50   2.66483000
9046.50   2.61633000
9047.50   2.60639000
9048.50   2.65065000
9049.50   2.70911000
9050.50   2.68804000
9051.50   2.68202000
9052.50   2.66122000
9053.50   2.64586000
9054.50   2.65632000
9055.50   2.63786000
9056.50   2.72317000
9057.50   2.81101000
9058.50   2.85039000
9059.50   2.84153000
9060.50   2.81882000
9061.50   2.81941000
9062.50   2.82712000
9063.50   2.82515000
9064.50   2.80508000
9065.50   2.82202000
9066.50   2.82279000
9067.50   2.78891000
9068.50   2.74330000
9069.50   2.74597000
9070.50   2.74692000
9071.50   2.74471000
9072.50   2.72992000
9073.50   2.70760000
9074.50   2.70454000
9075.50   2.80895000
9076.50   2.84469000
9077.50   2.80228000
9078.50   2.73935000
9079.50   2.72727000
9080.50   2.68500000
9081.50   2.65484000
9082.50   2.65475000
9083.50   2.69935000
9084.50   2.86794000
9085.50   2.85901000
9086.50   2.73829000
9087.50   2.62294000
9088.50   2.62273000
9089.50   2.74638000
9090.50   2.76558000
9091.50   2.79021000
9092.50   2.84252000
9093.50   2.83057000
9094.50   2.72966000
9095.50   2.73147000
9096.50   2.78665000
9097.50   2.81890000
9098.50   2.79532000
9099.50   2.71169000
9100.50   2.70020000
9101.50   2.70779000
9102.50   2.69696000
9103.50   2.78369000
9104.50   2.78472000
9105.50   2.80517000
9106.50   2.82316000
9107.50   2.78767000
9108.50   2.71722000
9109.50   2.73536000
9110.50   2.77574000
9111.50   2.79512000
9112.50   2.78441000
9113.50   2.79757000
9114.50   2.84945000
9115.50   2.88418000
9116.50   2.88074000
9117.50   2.84568000
9118.50   2.69469000
9119.50   2.63956000
9120.50   2.68246000
9121.50   2.75966000
9122.50   2.78495000
9123.50   2.84455000
9124.50   2.84884000
9125.50   2.83002000
9126.50   2.83410000
9127.50   2.88000000
9128.50   2.86841000
9129.50   2.80847000
9130.50   2.76227000
9131.50   2.78588000
9132.50   2.88984000
9133.50   2.92246000
9134.50   2.96543000
9135.50   2.95711000
9136.50   2.83932000
9137.50   2.80934000
9138.50   2.88410000
9139.50   2.91346000
9140.50   2.90441000
9141.50   2.95241000
9142.50   2.96719000
9143.50   2.87469000
9144.50   2.85032000
9145.50   2.91066000
9146.50   2.90371000
9147.50   2.85059000
9148.50   2.89908000
9149.50   2.98493000
9150.50   3.01546000
9151.50   2.93246000
9152.50   2.86321000
9153.50   2.97450000
9154.50   3.04405000
9155.50   2.93566000
9156.50   2.89371000
9157.50   2.94685000
9158.50   2.96167000
9159.50   2.92407000
9160.50   2.88795000
9161.50   2.95009000
9162.50   2.88038000
9163.50   2.82654000
9164.50   2.86995000
9165.50   2.99997000
9166.50   3.00907000
9167.50   2.93666000
9168.50   2.89512000
9169.50   2.91166000
9170.50   2.94492000
9171.50   3.00833000
9172.50   3.02672000
9173.50   2.98494000
9174.50   2.93910000
9175.50   2.99451000
9176.50   2.89066000
9177.50   2.89799000
9178.50   2.96903000
9179.50   3.02335000
9180.50   3.04253000
9181.50   2.98191000
9182.50   2.99545000
9183.50   2.96887000
9184.50   2.83000000
9185.50   2.80309000
9186.50   2.80042000
9187.50   2.81957000
9188.50   2.86314000
9189.50   2.93089000
9190.50   2.99563000
9191.50   2.96607000
9192.50   2.89914000
9193.50   2.85236000
9194.50   2.85415000
9195.50   2.82704000
9196.50   2.81896000
9197.50   2.81314000
9198.50   2.80807000
9199.50   2.82051000
9200.50   2.85401000
9201.50   2.89709000
9202.50   2.91173000
9203.50   2.90565000
9204.50   2.93892000
9205.50   2.91807000
9206.50   2.87680000
9207.50   2.86594000
9208.50   2.89843000
9209.50   2.89995000
9210.50   2.97827000
9211.50   3.00508000
9212.50   2.96415000
9213.50   2.89796000
9214.50   2.87631000
9215.50   2.83360000
9216.50   2.81248000
9217.50   2.81883000
9218.50   2.83679000
9219.50   2.84421000
9220.50   2.83317000
9221.50   2.83560000
9222.50   2.84844000
9223.50   2.84065000
9224.50   2.82624000
9225.50   2.81287000
9226.50   2.82569000
9227.50   2.85699000
9228.50   2.85466000
9229.50   2.81838000
9230.50   2.79362000
9231.50   2.79810000
9232.50   2.81150000
9233.50   2.78354000
9234.50   2.76356000
9235.50   2.74343000
9236.50   2.71902000
9237.50   2.69734000
9238.50   2.68923000
9239.50   2.70898000
9240.50   2.73437000
9241.50   2.73848000
9242.50   2.71045000
9243.50   2.71536000
9244.50   2.75674000
9245.50   2.71307000
9246.50   2.63211000
9247.50   2.64895000
9248.50   2.70600000
9249.50   2.68320000
9250.50   2.65352000
9251.50   2.65228000
9252.50   2.65684000
9253.50   2.64527000
9254.50   2.67173000
9255.50   2.69456000
9256.50   2.70730000
9257.50   2.75967000
9258.50   2.81195000
9259.50   2.73757000
9260.50   2.65146000
9261.50   2.65314000
9262.50   2.67983000
9263.50   2.60595000
9264.50   2.59315000
9265.50   2.61502000
9266.50   2.61883000
9267.50   2.68227000
9268.50   2.60962000
9269.50   2.57463000
9270.50   2.61442000
9271.50   2.66237000
9272.50   2.59535000
9273.50   2.52843000
9274.50   2.49657000
9275.50   2.51237000
9276.50   2.56535000
9277.50   2.66817000
9278.50   2.63641000
9279.50   2.56450000
9280.50   2.52959000
9281.50   2.54038000
9282.50   2.63281000
9283.50   2.64029000
9284.50   2.54655000
9285.50   2.42167000
9286.50   2.39317000
9287.50   2.49978000
9288.50   2.56279000
9289.50   2.57023000
9290.50   2.56224000
9291.50   2.56075000
9292.50   2.57905000
9293.50   2.58880000
9294.50   2.58860000
9295.50   2.58053000
9296.50   2.55165000
9297.50   2.63110000
9298.50   2.69869000
9299.50   2.69220000
9300.50   2.61805000
9301.50   2.59755000
9302.50   2.53990000
9303.50   2.50873000
9304.50   2.53936000
9305.50   2.61476000
9306.50   2.65200000
9307.50   2.63210000
9308.50   2.57787000
9309.50   2.51218000
9310.50   2.44564000
9311.50   2.50891000
9312.50   2.68513000
9313.50   2.87397000
9314.50   2.91502000
9315.50   2.59177000
9316.50   2.40710000
9317.50   2.40614000
9318.50   2.49527000
9319.50   2.58294000
9320.50   2.76348000
9321.50   2.85870000
9322.50   2.88778000
9323.50   2.84281000
9324.50   2.71930000
9325.50   2.63555000
9326.50   2.50380000
9327.50   2.47411000
9328.50   2.58122000
9329.50   2.75364000
9330.50   2.83795000
9331.50   2.92425000
9332.50   2.93352000
9333.50   2.81508000
9334.50   2.60131000
9335.50   2.62144000
9336.50   2.77529000
9337.50   2.84409000
9338.50   2.77639000
9339.50   2.79286000
9340.50   3.00463000
9341.50   3.06987000
9342.50   2.88499000
9343.50   2.55210000
9344.50   2.37724000
9345.50   2.34696000
9346.50   2.48535000
9347.50   2.61680000
9348.50   2.61011000
9349.50   2.76069000
9350.50   3.06733000
9351.50   3.20196000
9352.50   2.98927000
9353.50   2.53381000
9354.50   2.59552000
9355.50   2.77989000
9356.50   2.76501000
9357.50   2.55680000
9358.50   2.43608000
9359.50   2.48362000
9360.50   2.62655000
9361.50   2.74575000
9362.50   2.82889000
9363.50   2.98878000
9364.50   2.95948000
9365.50   2.83347000
9366.50   2.77417000
9367.50   2.86587000
9368.50   3.04353000
9369.50   2.87871000
9370.50   2.60971000
9371.50   2.46708000
9372.50   2.57694000
9373.50   2.81988000
9374.50   3.03990000
9375.50   3.12216000
9376.50   3.06635000
9377.50   2.97254000
9378.50   3.08396000
9379.50   2.90826000
9380.50   2.61732000
9381.50   2.45273000
9382.50   2.60940000
9383.50   2.90131000
9384.50   3.05994000
9385.50   3.01444000
9386.50   2.81690000
9387.50   2.61254000
9388.50   2.58127000
9389.50   2.66250000
9390.50   2.70243000
9391.50   2.68036000
9392.50   2.77077000
9393.50   2.64740000
9394.50   2.54657000
9395.50   2.57172000
9396.50   2.70720000
9397.50   2.79769000
9398.50   2.76838000
9399.50   2.66991000
9400.50   2.61383000
9401.50   2.65712000
9402.50   2.62854000
9403.50   2.71062000
9404.50   2.82361000
9405.50   2.89090000
9406.50   2.88396000
