# File created by shivutils (I.Shivvers)
# wl(A)   flm    er(optional)
3632.00   11.46337986   0.35909423
3634.00   11.38286018   0.35491312
3636.00   11.68819523   0.36029533
3638.00   12.35217381   0.36512256
3640.00   13.56583500   0.37678438
3642.00   13.30628586   0.37701774
3644.00   14.07241917   0.38386270
3646.00   14.14732075   0.38437346
3648.00   14.49216843   0.40816268
3650.00   15.08387470   0.43970847
3652.00   13.44962025   0.41751954
3654.00   13.21073818   0.39871314
3656.00   12.87239552   0.38511527
3658.00   12.28924561   0.36261126
3660.00   12.98586845   0.36620149
3662.00   13.74577713   0.38446444
3664.00   13.26482487   0.37876666
3666.00   13.17028904   0.36297131
3668.00   13.11817932   0.35339785
3670.00   13.83208942   0.35644504
3672.00   14.57280064   0.36407027
3674.00   15.62617016   0.37369666
3676.00   16.30716515   0.37436083
3678.00   14.34009171   0.35354248
3680.00   13.53981972   0.34384671
3682.00   13.10766125   0.34120810
3684.00   13.75876522   0.34325737
3686.00   14.62759018   0.34701952
3688.00   15.90087605   0.35801128
3690.00   16.28893471   0.36491549
3692.00   15.64017677   0.36050096
3694.00   14.87749004   0.35013190
3696.00   13.99494362   0.34333867
3698.00   14.94324970   0.35168272
3700.00   15.40709114   0.35645187
3702.00   15.98976135   0.35742080
3704.00   17.11323357   0.36270052
3706.00   17.65245438   0.36420456
3708.00   18.74893379   0.36956975
3710.00   17.43419647   0.36064470
3712.00   17.37691879   0.36113325
3714.00   17.24894714   0.35921428
3716.00   16.83986473   0.35518491
3718.00   16.81476402   0.35072663
3720.00   16.75609016   0.34596997
3722.00   17.63048744   0.35147980
3724.00   17.38960075   0.35453725
3726.00   17.03790855   0.35113561
3728.00   16.21917915   0.34070447
3730.00   15.74221134   0.33818087
3732.00   16.73268700   0.33987278
3734.00   16.06530190   0.33226669
3736.00   15.64745140   0.32674336
3738.00   15.87259293   0.33131722
3740.00   17.18407249   0.34471610
3742.00   17.25317192   0.34453991
3744.00   17.24074936   0.33890039
3746.00   16.71771049   0.33216816
3748.00   16.67089653   0.33034787
3750.00   17.47672081   0.33559626
3752.00   16.44498253   0.32907078
3754.00   14.45547581   0.31518683
3756.00   14.36081505   0.31237918
3758.00   14.77792358   0.30955312
3760.00   14.97080803   0.31251079
3762.00   16.73683357   0.32312733
3764.00   17.47023392   0.32759991
3766.00   17.39951897   0.32564864
3768.00   15.68462753   0.31211248
3770.00   13.56338978   0.29657659
3772.00   13.55299854   0.29777744
3774.00   15.70324230   0.31510708
3776.00   17.10376358   0.32412830
3778.00   16.71815681   0.32134765
3780.00   15.44249535   0.30938500
3782.00   13.54131985   0.29380465
3784.00   12.27956581   0.28082544
3786.00   11.98842812   0.27510232
3788.00   13.62841129   0.28672597
3790.00   14.97857475   0.29937118
3792.00   15.55885506   0.30186188
3794.00   14.33908558   0.29061794
3796.00   12.82473183   0.27559286
3798.00   11.27111244   0.26091495
3800.00   11.86476517   0.26701471
3802.00   13.85671425   0.28523394
3804.00   16.31772423   0.30214760
3806.00   16.76342392   0.30337140
3808.00   14.97305965   0.28947109
3810.00   14.63172913   0.28876686
3812.00   15.44901562   0.29241908
3814.00   15.31091213   0.28737876
3816.00   15.11691284   0.28493163
3818.00   14.79915333   0.28168979
3820.00   13.83648491   0.27248329
3822.00   15.06061745   0.28061116
3824.00   16.88814926   0.29176375
3826.00   17.41739845   0.29406640
3828.00   17.63425636   0.29818308
3830.00   18.92035675   0.30641910
3832.00   19.68091011   0.30857942
3834.00   19.11429214   0.30315885
3836.00   18.76630211   0.29947105
3838.00   17.16725540   0.28886738
3840.00   16.26018333   0.28174579
3842.00   16.95994759   0.28614202
3844.00   16.02754784   0.28081825
3846.00   14.73883438   0.27097768
3848.00   13.58615780   0.26193589
3850.00   14.84223461   0.26807603
3852.00   16.94975281   0.28267983
3854.00   18.34115028   0.29102597
3856.00   19.22476196   0.29411307
3858.00   19.32132149   0.29169714
3860.00   19.71074867   0.29354969
3862.00   19.63846588   0.29547340
3864.00   19.25441933   0.29471043
3866.00   18.14147377   0.28512695
3868.00   18.15753746   0.28281903
3870.00   18.76722717   0.28422222
3872.00   17.90151405   0.27940220
3874.00   17.74350739   0.28017217
3876.00   16.89280128   0.27507412
3878.00   16.41313362   0.26831990
3880.00   16.48913193   0.26631987
3882.00   16.25059509   0.26438838
3884.00   15.27217388   0.25596398
3886.00   14.87180805   0.25224075
3888.00   15.20775223   0.25610855
3890.00   16.18117714   0.26276061
3892.00   17.82223129   0.27202040
3894.00   19.68495560   0.28304639
3896.00   20.98294258   0.29157308
3898.00   21.75569725   0.29602349
3900.00   22.35909843   0.29721346
3902.00   22.56489944   0.29864469
3904.00   23.01172447   0.30201122
3906.00   22.51376915   0.30313820
3908.00   22.13807487   0.30391487
3910.00   22.39596939   0.30521259
3912.00   22.03581619   0.30366886
3914.00   23.62491035   0.30859023
3916.00   24.40878487   0.30845502
3918.00   23.82718658   0.30348685
3920.00   24.84305000   0.30470392
3922.00   23.53397179   0.29614499
3924.00   22.86558151   0.29122511
3926.00   23.84612274   0.29424655
3928.00   23.86975479   0.29204252
3930.00   22.88106537   0.28522089
3932.00   22.13568687   0.28157511
3934.00   22.58274269   0.28232202
3936.00   22.50845337   0.28020135
3938.00   21.25774193   0.27414027
3940.00   20.42095375   0.27115646
3942.00   21.64898872   0.27917761
3944.00   23.05754852   0.28752100
3946.00   24.11187172   0.29205739
3948.00   25.27803612   0.29739809
3950.00   25.13271713   0.29440290
3952.00   26.25400734   0.29967308
3954.00   26.39902878   0.29997775
3956.00   25.39735603   0.29338104
3958.00   25.63492775   0.29452065
3960.00   26.47552299   0.29915550
3962.00   27.79077530   0.30393085
3964.00   28.34989548   0.30169067
3966.00   27.68808174   0.29586044
3968.00   26.41591454   0.28818300
3970.00   27.30615807   0.29198363
3972.00   26.24825859   0.28823096
3974.00   25.59016609   0.28640142
3976.00   25.92456245   0.28804472
3978.00   25.12366676   0.28479037
3980.00   23.13019371   0.27446234
3982.00   19.68032646   0.25609797
3984.00   15.99044800   0.23402794
3986.00   14.84000969   0.22609518
3988.00   16.87646294   0.23888272
3990.00   19.88063622   0.25606519
3992.00   23.03117180   0.27089611
3994.00   24.36274910   0.27804226
3996.00   24.99986839   0.28210330
3998.00   25.88558197   0.28566548
4000.00   26.90550232   0.28871495
4002.00   26.96236801   0.28761190
4004.00   27.64595032   0.28881136
4006.00   27.57982063   0.28878629
4008.00   27.33202171   0.28796864
4010.00   26.64735413   0.28546721
4012.00   25.74451065   0.28072837
4014.00   24.01390839   0.27245069
4016.00   22.13264656   0.26248485
4018.00   18.87741852   0.24906966
4020.00   15.58058739   0.23613229
4022.00   15.14866829   0.23467281
4024.00   16.69791985   0.24182069
4026.00   19.27526283   0.25192696
4028.00   21.57019615   0.26008943
4030.00   24.31837082   0.27093199
4032.00   25.46915054   0.27488953
4034.00   25.87176514   0.27608931
4036.00   26.16144371   0.27790195
4038.00   25.87235069   0.27632880
4040.00   26.39516640   0.27737942
4042.00   27.00628662   0.28121936
4044.00   27.34468651   0.30144176
4046.00   27.72601700   0.32648811
4048.00   27.33118248   0.32006216
4050.00   26.59181404   0.28813452
4052.00   26.91196823   0.28109372
4054.00   27.63402557   0.28270069
4056.00   27.72261429   0.28167343
4058.00   26.81156731   0.27428377
4060.00   26.84813309   0.27424112
4062.00   27.17069626   0.27356663
4064.00   27.90233994   0.27650845
4066.00   28.67419052   0.27910271
4068.00   28.37687111   0.27798659
4070.00   28.66031265   0.27823454
4072.00   28.36844444   0.27573159
4074.00   28.97223663   0.27864796
4076.00   28.26008797   0.27946752
4078.00   28.02862930   0.28097966
4080.00   28.07950974   0.27957472
4082.00   27.97434044   0.27712712
4084.00   27.02952957   0.27178225
4086.00   25.62949753   0.26534760
4088.00   26.02845955   0.26543966
4090.00   27.42028427   0.26936448
4092.00   28.62300301   0.27343437
4094.00   28.25996208   0.27025709
4096.00   27.19419670   0.26538670
4098.00   25.63073158   0.25804475
4100.00   25.24871826   0.25435317
4102.00   26.65936279   0.25949270
4104.00   27.58761597   0.26371253
4106.00   27.52728653   0.26369911
4108.00   26.87620735   0.26060006
4110.00   26.05014420   0.25658956
4112.00   26.09587860   0.25692588
4114.00   25.97780800   0.25670007
4116.00   25.26749611   0.25364530
4118.00   24.81948280   0.25088543
4120.00   25.28394508   0.25151774
4122.00   25.45805359   0.25190872
4124.00   26.15833092   0.25438651
4126.00   25.68174934   0.25266227
4128.00   25.65666008   0.25189239
4130.00   25.25571060   0.24962965
4132.00   24.27862549   0.24688090
4134.00   25.65741158   0.25218615
4136.00   26.33721542   0.25477681
4138.00   26.38499451   0.25444451
4140.00   26.36459541   0.25483510
4142.00   27.21678543   0.25594422
4144.00   27.82380486   0.25593522
4146.00   26.87191963   0.25303656
4148.00   26.11819077   0.24984680
4150.00   25.06564140   0.24600790
4152.00   23.77763748   0.24118903
4154.00   22.10257149   0.23360832
4156.00   21.06785202   0.22660905
4158.00   21.44076538   0.22812226
4160.00   23.20485306   0.23644476
4162.00   24.71553421   0.24357833
4164.00   25.18750954   0.24750307
4166.00   25.61531258   0.24929559
4168.00   26.49905396   0.24961893
4170.00   27.21069145   0.25061646
4172.00   27.15738487   0.24924341
4174.00   26.93616676   0.24669306
4176.00   26.62226677   0.24587432
4178.00   26.92339325   0.24718966
4180.00   27.34869576   0.24802400
4182.00   26.68437004   0.24483253
4184.00   26.52236748   0.24361287
4186.00   25.82710457   0.24034509
4188.00   25.64430046   0.23964204
4190.00   27.20453453   0.24493830
4192.00   28.26134109   0.24928316
4194.00   28.84365273   0.25148785
4196.00   27.82204628   0.24591313
4198.00   26.94469833   0.24178478
4200.00   27.06867027   0.24165948
4202.00   27.59520721   0.24385230
4204.00   27.60692978   0.24436937
4206.00   27.62574005   0.24452996
4208.00   27.11025620   0.24292932
4210.00   26.88154411   0.24237122
4212.00   27.76875877   0.24464807
4214.00   27.68083572   0.24396189
4216.00   28.86738396   0.24738345
4218.00   29.20381927   0.24856919
4220.00   28.88424873   0.24732900
4222.00   28.63134766   0.24550401
4224.00   28.23945999   0.24269271
4226.00   27.23491669   0.23812914
4228.00   26.81760979   0.23646456
4230.00   26.63467979   0.23703824
4232.00   26.46195221   0.23681879
4234.00   26.91941261   0.23849240
4236.00   27.37207603   0.23948646
4238.00   27.60992241   0.24041194
4240.00   27.82831383   0.24026017
4242.00   27.48067093   0.23843032
4244.00   28.15961456   0.24287736
4246.00   28.57470894   0.24731348
4248.00   29.10189819   0.24835892
4250.00   28.89804840   0.24342938
4252.00   27.99315834   0.23820129
4254.00   27.02709961   0.23489131
4256.00   26.84623146   0.23457476
4258.00   26.79351807   0.23333417
4260.00   27.64318657   0.23550053
4262.00   28.72309303   0.23879570
4264.00   28.99867058   0.24015722
4266.00   29.43321609   0.24142727
4268.00   29.37882805   0.24035309
4270.00   28.75036430   0.23730111
4272.00   28.66909218   0.23642875
4274.00   29.48610115   0.23960017
4276.00   30.11639214   0.24227901
4278.00   29.17834282   0.23913506
4280.00   26.73752785   0.23043804
4282.00   25.65053368   0.22548561
4284.00   25.91048050   0.22666851
4286.00   28.08556366   0.23331414
4288.00   29.17253876   0.23667149
4290.00   28.64107513   0.23504220
4292.00   28.24173355   0.23332173
4294.00   28.12751961   0.23304993
4296.00   28.68790245   0.23401748
4298.00   29.38064384   0.23542175
4300.00   30.07882118   0.23700120
4302.00   29.91739845   0.23530874
4304.00   29.13255882   0.23329297
4306.00   28.31446075   0.23089620
4308.00   29.21608925   0.23322621
4310.00   28.63131142   0.23201989
4312.00   29.35250282   0.23687160
4314.00   29.09531975   0.23777044
4316.00   28.65181923   0.23546666
4318.00   28.97776985   0.23624586
4320.00   30.53042793   0.24128611
4322.00   31.15896988   0.24267791
4324.00   30.73231316   0.24062625
4326.00   28.76705742   0.23307736
4328.00   27.42803383   0.22706231
4330.00   27.40237427   0.22722061
4332.00   28.75210190   0.23160371
4334.00   29.84521294   0.23460408
4336.00   30.42103958   0.23601460
4338.00   30.02009201   0.23462689
4340.00   29.81607246   0.23409089
4342.00   29.12258720   0.23156893
4344.00   27.90316582   0.22846811
4346.00   27.15480423   0.22778220
4348.00   27.58766556   0.22939219
4350.00   28.39758492   0.23028308
4352.00   28.38150024   0.22965950
4354.00   27.20545006   0.22951582
4356.00   25.74642181   0.25707135
4358.00   25.09482002   0.27993637
4360.00   24.82925034   0.26768219
4362.00   24.29442406   0.23406395
4364.00   24.19802284   0.21934466
4366.00   23.98097229   0.21529894
4368.00   24.87216568   0.21739836
4370.00   26.28134346   0.22136930
4372.00   28.17439461   0.22825550
4374.00   29.99005890   0.23466933
4376.00   31.05912209   0.23685887
4378.00   30.15471840   0.23295191
4380.00   28.46170235   0.22578786
4382.00   26.38197327   0.21792036
4384.00   26.10635567   0.21623993
4386.00   27.41310883   0.22055945
4388.00   28.22625923   0.22318934
4390.00   28.59110641   0.22487201
4392.00   27.96839714   0.22294198
4394.00   26.29408646   0.21668084
4396.00   23.66804695   0.20730941
4398.00   22.41007423   0.20366047
4400.00   23.01064682   0.20647943
4402.00   24.56063843   0.21130913
4404.00   26.40155983   0.21630178
4406.00   27.02152443   0.21793982
4408.00   27.03705406   0.21762836
4410.00   25.95710182   0.21515018
4412.00   26.39703941   0.21608327
4414.00   27.36318207   0.21969235
4416.00   27.84824944   0.22131920
4418.00   28.11098289   0.22171418
4420.00   28.20767975   0.22145885
4422.00   29.14333725   0.22383076
4424.00   28.70707703   0.22189732
4426.00   28.31028748   0.22051603
4428.00   27.23771095   0.21734920
4430.00   26.66759872   0.21518953
4432.00   26.20664215   0.21319599
4434.00   26.32016563   0.21287373
4436.00   27.12538338   0.21502417
4438.00   26.86880875   0.21487582
4440.00   25.46940231   0.20974867
4442.00   23.84025955   0.20402737
4444.00   23.78293228   0.20359531
4446.00   25.25986481   0.20837773
4448.00   25.50417900   0.20909746
4450.00   26.07212257   0.21097054
4452.00   26.42792892   0.21130933
4454.00   26.81384468   0.21224546
4456.00   27.25894165   0.21334188
4458.00   27.11982918   0.21265356
4460.00   26.79873085   0.21129315
4462.00   25.93071365   0.20851745
4464.00   25.49189949   0.20720415
4466.00   26.10345459   0.20847538
4468.00   27.00482750   0.21142383
4470.00   27.55660439   0.21327271
4472.00   28.11470604   0.21486878
4474.00   27.58023834   0.21326260
4476.00   27.51799583   0.21303862
4478.00   28.08520317   0.21396497
4480.00   28.00749588   0.21348548
4482.00   27.98448181   0.21335895
4484.00   28.18579483   0.21431883
4486.00   28.06640434   0.21389298
4488.00   28.33413315   0.21463893
4490.00   28.12017822   0.21367677
4492.00   27.91361427   0.21265922
4494.00   27.63095284   0.21169953
4496.00   29.17300415   0.21599638
4498.00   29.26013184   0.21665430
4500.00   29.00234413   0.21550366
4502.00   28.44569206   0.21320103
4504.00   28.85459709   0.21436141
4506.00   29.83477211   0.21715529
4508.00   30.46032143   0.21890312
4510.00   30.44974136   0.21833713
4512.00   29.26416206   0.21527019
4514.00   28.52825356   0.21216600
4516.00   27.62738991   0.20920822
4518.00   27.68114662   0.20921883
4520.00   27.78869629   0.20928994
4522.00   28.57353592   0.21118884
4524.00   29.27299118   0.21302618
4526.00   29.23933792   0.21249188
4528.00   29.58648109   0.21305531
4530.00   30.30412674   0.21494296
4532.00   31.21242332   0.21747248
4534.00   32.09928131   0.22018647
4536.00   32.35804749   0.22069660
4538.00   32.15002441   0.21939825
4540.00   31.15390587   0.21680970
4542.00   30.86632156   0.21577415
4544.00   31.73987198   0.21821433
4546.00   32.05146790   0.21915618
4548.00   32.57784271   0.21963626
4550.00   31.89001656   0.21730538
4552.00   31.48013306   0.21616821
4554.00   31.73886108   0.21667787
4556.00   32.20820999   0.21812226
4558.00   33.16807938   0.22076686
4560.00   33.64059448   0.22199915
4562.00   34.21930313   0.22311881
4564.00   35.45057678   0.22611156
4566.00   35.63399124   0.22587259
4568.00   35.79771042   0.22674799
4570.00   35.93598938   0.22652754
4572.00   35.31832123   0.22491281
4574.00   35.42091370   0.22522372
4576.00   35.30068970   0.22440751
4578.00   35.52442169   0.22467639
4580.00   35.73451614   0.22465117
4582.00   35.78343201   0.22469570
4584.00   35.46905136   0.22324380
4586.00   35.00196457   0.22179413
4588.00   34.19511414   0.21967952
4590.00   34.44841766   0.21998881
4592.00   34.63095474   0.22069769
4594.00   34.81884766   0.22072910
4596.00   35.96866226   0.22369465
4598.00   36.73984146   0.22592743
4600.00   38.14380264   0.22909272
4602.00   38.55487442   0.22988588
4604.00   38.74204254   0.23028319
4606.00   38.42630005   0.22959736
4608.00   38.68137360   0.23030913
4610.00   38.57277679   0.22999623
4612.00   38.58110428   0.22949962
4614.00   38.81551743   0.22968699
4616.00   39.79210281   0.23216665
4618.00   41.02173996   0.23485363
4620.00   41.85682297   0.23739904
4622.00   42.41051483   0.23859507
4624.00   42.30963135   0.23820366
4626.00   42.02455139   0.23757580
4628.00   42.78244781   0.23907174
4630.00   42.85870743   0.23936450
4632.00   43.30362701   0.24034138
4634.00   43.64200974   0.24092799
4636.00   44.05204010   0.24168922
4638.00   43.83049774   0.24072805
4640.00   43.16802597   0.23980460
4642.00   43.68737411   0.24040617
4644.00   42.89067841   0.23811349
4646.00   43.30549240   0.23906812
4648.00   44.01755905   0.24092771
4650.00   44.75809479   0.24259683
4652.00   44.31314850   0.24176782
4654.00   44.58598328   0.24257217
4656.00   43.94898987   0.24109039
4658.00   43.98419952   0.24138832
4660.00   44.41125870   0.24244706
4662.00   44.62151337   0.24300684
4664.00   44.57997513   0.24293655
4666.00   45.20817947   0.24439836
4668.00   45.26397324   0.24493347
4670.00   46.12154770   0.24721473
4672.00   46.32888031   0.24778721
4674.00   45.44177628   0.24503706
4676.00   45.25090790   0.24433395
4678.00   45.31810760   0.24405733
4680.00   44.51671219   0.24166156
4682.00   44.64810562   0.24182436
4684.00   44.38875580   0.24113017
4686.00   44.00494003   0.24010582
4688.00   43.70714569   0.23911268
4690.00   43.30910110   0.23799114
4692.00   43.09911346   0.23742060
4694.00   42.46998215   0.23572759
4696.00   42.11763000   0.23489529
4698.00   41.07014847   0.23179133
4700.00   40.39432526   0.22989261
4702.00   40.16911697   0.22933447
4704.00   39.71687317   0.22842760
4706.00   39.13713837   0.22668931
4708.00   38.16414642   0.22440392
4710.00   37.81810379   0.22400373
4712.00   37.90907669   0.22391468
4714.00   38.28530502   0.22449203
4716.00   37.92919159   0.22330523
4718.00   37.62521744   0.22273543
4720.00   37.95236969   0.22346945
4722.00   38.20992661   0.22422040
4724.00   37.87302399   0.22388953
4726.00   36.93988037   0.22434579
4728.00   35.20289993   0.21755384
4730.00   34.12995148   0.21489464
4732.00   34.54113007   0.21583889
4734.00   34.68059921   0.21684399
4736.00   35.04549408   0.21816397
4738.00   35.59894180   0.22041062
4740.00   35.81992722   0.22095834
4742.00   34.73143005   0.21944670
4744.00   34.22354126   0.21738990
4746.00   34.59944916   0.21675260
4748.00   34.60843658   0.21491355
4750.00   34.30794144   0.21373914
4752.00   34.30968094   0.21387625
4754.00   33.94344330   0.21278471
4756.00   33.82638168   0.21147849
4758.00   34.00177002   0.21147498
4760.00   33.44867325   0.20953128
4762.00   32.89238739   0.20784542
4764.00   32.39086914   0.20610949
4766.00   31.86732292   0.20445718
4768.00   32.10478973   0.20501791
4770.00   31.62431145   0.20373544
4772.00   32.16258240   0.20493993
4774.00   32.09822464   0.20501558
4776.00   32.24497604   0.20601350
4778.00   32.43241119   0.20713316
4780.00   33.08332443   0.20904483
4782.00   33.55793762   0.21000618
4784.00   33.75725174   0.20963229
4786.00   33.79399872   0.20963290
4788.00   33.05435181   0.20767209
4790.00   32.20932388   0.20522955
4792.00   31.78607941   0.20398282
4794.00   31.70945740   0.20380647
4796.00   31.53113747   0.20283690
4798.00   31.82286263   0.20366354
4800.00   32.52180481   0.20555128
4802.00   32.76784515   0.20603965
4804.00   32.88895416   0.20638157
4806.00   33.23838806   0.20729636
4808.00   33.43174744   0.20773160
4810.00   33.54356384   0.20804471
4812.00   33.74949646   0.20837949
4814.00   33.85947800   0.20880832
4816.00   33.59355927   0.20802566
4818.00   33.26367569   0.20707409
4820.00   33.21942902   0.20684661
4822.00   33.42154694   0.20757973
4824.00   33.26029968   0.20672917
4826.00   32.44831467   0.20507942
4828.00   32.09974670   0.20392318
4830.00   32.23614120   0.20402804
4832.00   32.76660919   0.20571832
4834.00   33.26396561   0.20688784
4836.00   33.58623123   0.20793919
4838.00   34.20773697   0.20977406
4840.00   35.01900482   0.21175945
4842.00   34.58964157   0.21009451
4844.00   34.23226929   0.20913713
4846.00   33.98059082   0.20814678
4848.00   33.41506958   0.20678300
4850.00   32.85758972   0.20497915
4852.00   33.19503784   0.20564394
4854.00   33.41786194   0.20544603
4856.00   33.40513611   0.20545022
4858.00   34.23528290   0.20724700
4860.00   34.33869934   0.20738570
4862.00   34.10441589   0.20649758
4864.00   34.12615204   0.20687088
4866.00   33.51964951   0.20562293
4868.00   33.21265411   0.20444232
4870.00   33.22255325   0.20415720
4872.00   32.69694138   0.20279437
4874.00   32.87434769   0.20313795
4876.00   33.96929169   0.20599681
4878.00   33.66667175   0.20550129
4880.00   34.07277298   0.20675647
4882.00   34.28315353   0.20708086
4884.00   33.87921524   0.20589526
4886.00   33.82374954   0.20507501
4888.00   33.52289963   0.20402274
4890.00   33.27641296   0.20333090
4892.00   33.22415543   0.20322867
4894.00   33.41919327   0.20387168
4896.00   32.95253754   0.20293614
4898.00   33.28035355   0.20327014
4900.00   33.41300583   0.20357701
4902.00   33.29115677   0.20316520
4904.00   32.88313675   0.20178068
4906.00   32.64313126   0.20138064
4908.00   33.11064148   0.20271093
4910.00   33.16185379   0.20280077
4912.00   33.43401718   0.20303260
4914.00   32.91321945   0.20194335
4916.00   32.60796356   0.20088907
4918.00   32.58742523   0.20029807
4920.00   31.81052208   0.19811054
4922.00   30.33891487   0.19396397
4924.00   29.01528168   0.18998440
4926.00   27.94836235   0.18695121
4928.00   28.37432671   0.18824440
4930.00   30.06711769   0.19262879
4932.00   31.51810265   0.19657244
4934.00   31.95258904   0.19762510
4936.00   32.39713287   0.19877376
4938.00   32.77132797   0.19972739
4940.00   33.58864594   0.20163161
4942.00   34.11893082   0.20371744
4944.00   35.08920670   0.20599382
4946.00   35.22032928   0.20624977
4948.00   35.62678909   0.20705302
4950.00   34.65470123   0.20512196
4952.00   34.98875046   0.20612837
4954.00   34.98543549   0.20622583
4956.00   35.43449020   0.20657320
4958.00   36.67065811   0.20970686
4960.00   37.54170227   0.21197045
4962.00   38.08532715   0.21356933
4964.00   38.32773209   0.21411607
4966.00   38.23937225   0.21374680
4968.00   38.10691071   0.21367441
4970.00   38.23801041   0.21460351
4972.00   37.84578323   0.21397457
4974.00   37.70075607   0.21428277
4976.00   37.19694519   0.21409039
4978.00   37.79296112   0.21640739
4980.00   38.10364914   0.21770917
4982.00   37.37907791   0.21657231
4984.00   36.05837250   0.21323246
4986.00   35.38451767   0.21091041
4988.00   35.04285431   0.20922711
4990.00   35.81106567   0.21031183
4992.00   35.95397186   0.21009949
4994.00   36.83023071   0.21156901
4996.00   37.30977249   0.21171825
4998.00   37.08174515   0.21075612
5000.00   36.17971420   0.20789674
5002.00   35.52430725   0.20624989
5004.00   34.79671860   0.20377764
5006.00   34.77437592   0.20391446
5008.00   35.60009003   0.20584595
5010.00   36.10838699   0.20682141
5012.00   36.22568893   0.20708558
5014.00   36.57063293   0.20813967
5016.00   36.57178497   0.20829268
5018.00   36.25954437   0.20767877
5020.00   35.20391083   0.20519017
5022.00   34.97711945   0.20823798
5024.00   33.95146561   0.20361890
5026.00   34.50254822   0.20240010
5028.00   34.75957489   0.20344247
5030.00   34.55348587   0.20318443
5032.00   34.58238983   0.20303005
5034.00   33.73937607   0.20077239
5036.00   33.58810043   0.19975053
5038.00   34.18749237   0.20126924
5040.00   34.47648239   0.20198044
5042.00   34.71507263   0.20234561
5044.00   33.91563416   0.20082954
5046.00   33.17673111   0.19880684
5048.00   32.04058456   0.19540972
5050.00   31.59824181   0.19441478
5052.00   32.07058334   0.19596431
5054.00   32.85470200   0.19779575
5056.00   32.94602966   0.19783497
5058.00   32.61258316   0.19710542
5060.00   33.25333786   0.19919807
5062.00   33.39724731   0.20004058
5064.00   33.04057693   0.19917193
5066.00   32.44924545   0.19804575
5068.00   32.34067154   0.19835183
5070.00   32.71132278   0.19960508
5072.00   33.06417084   0.19987065
5074.00   32.69305801   0.19891042
5076.00   32.46413803   0.19782545
5078.00   31.63993835   0.19563766
5080.00   31.31406403   0.19637471
5082.00   30.79634285   0.19748150
5084.00   30.97759628   0.19935590
5086.00   31.14094543   0.20017323
5088.00   31.26566887   0.19907880
5090.00   31.84801865   0.19847864
5092.00   32.25345612   0.19795473
5094.00   31.99905014   0.19661704
5096.00   32.55490494   0.19839360
5098.00   32.97683334   0.19964029
5100.00   32.96338654   0.19983923
5102.00   32.65589523   0.19854489
5104.00   31.72264481   0.19507572
5106.00   31.43100929   0.19379960
5108.00   31.40067482   0.19329610
5110.00   31.58187294   0.19404651
5112.00   32.46161270   0.19635516
5114.00   32.73530960   0.19708653
5116.00   32.65767288   0.19720094
5118.00   32.50643921   0.19632812
5120.00   32.72985840   0.19669357
5122.00   33.06115723   0.19761439
5124.00   33.64006805   0.19859484
5126.00   34.35743713   0.20038401
5128.00   34.09701538   0.19985087
5130.00   34.14391708   0.19957273
5132.00   33.38219452   0.19771530
5134.00   33.27418137   0.19764803
5136.00   32.81222153   0.19612166
5138.00   32.51121902   0.19553198
5140.00   32.31681061   0.19491343
5142.00   32.69394302   0.19573039
5144.00   32.39915466   0.19500569
5146.00   31.82099915   0.19377607
5148.00   31.60805893   0.19358240
5150.00   31.41646576   0.19351172
5152.00   32.37522888   0.19663720
5154.00   32.38325882   0.19657108
5156.00   32.53062820   0.19710252
5158.00   33.24634552   0.19812556
5160.00   33.33969116   0.19796070
5162.00   33.49856186   0.19792946
5164.00   32.88515472   0.19560297
5166.00   32.21746445   0.19362007
5168.00   32.17552567   0.19327386
5170.00   32.33617783   0.19349195
5172.00   32.21644211   0.19289409
5174.00   32.21938705   0.19294165
5176.00   32.04282379   0.19290879
5178.00   31.61712265   0.19207412
5180.00   32.49017715   0.19409250
5182.00   32.82484818   0.19469111
5184.00   33.53409576   0.19619817
5186.00   33.96330261   0.19760256
5188.00   33.44517517   0.19653407
5190.00   32.59749222   0.19434549
5192.00   32.56656647   0.19408740
5194.00   32.19036102   0.19335546
5196.00   31.63479042   0.19206227
5198.00   31.99755669   0.19306378
5200.00   32.51546097   0.19444995
5202.00   32.60986710   0.19445036
5204.00   32.63606262   0.19440190
5206.00   32.60243988   0.19413522
5208.00   32.21259689   0.19354723
5210.00   32.45501328   0.19420193
5212.00   32.62764359   0.19449212
5214.00   32.55700302   0.19401114
5216.00   32.67984390   0.19431667
5218.00   33.01772308   0.19540399
5220.00   32.81143951   0.19496851
5222.00   33.53629303   0.19642039
5224.00   33.68460464   0.19683553
5226.00   34.37929535   0.19805205
5228.00   34.81052017   0.19913223
5230.00   34.48951721   0.19836596
5232.00   33.53296280   0.19591306
5234.00   32.30387878   0.19242415
5236.00   31.24225807   0.18964176
5238.00   30.20168114   0.18704298
5240.00   30.18754005   0.18718046
5242.00   30.43041801   0.18772705
5244.00   31.64704895   0.19064389
5246.00   33.55692673   0.19556652
5248.00   33.65901566   0.19587041
5250.00   33.10240936   0.19421746
5252.00   32.78575516   0.19361259
5254.00   33.21640396   0.19473386
5256.00   34.16380692   0.19746618
5258.00   34.61880112   0.19889961
5260.00   34.99061584   0.19959255
5262.00   35.43506622   0.20018440
5264.00   35.97007751   0.20095922
5266.00   36.56735992   0.20239162
5268.00   36.96041870   0.20336761
5270.00   37.22847366   0.20373490
5272.00   37.16523743   0.20360444
5274.00   36.97895050   0.20343873
5276.00   36.80394745   0.20308527
5278.00   36.71014023   0.20290928
5280.00   37.54274750   0.20471835
5282.00   38.26660156   0.20666574
5284.00   39.24968719   0.20912388
5286.00   39.11148071   0.20891660
5288.00   39.82154846   0.21040164
5290.00   40.74074173   0.21241190
5292.00   40.18941116   0.21114302
5294.00   39.29992294   0.20915289
5296.00   39.25347519   0.20897086
5298.00   39.48966599   0.20922852
5300.00   40.21024323   0.21122296
5302.00   40.76943207   0.21238206
5304.00   41.07182312   0.21297114
5306.00   41.21619797   0.21380883
5308.00   41.75549698   0.21472894
5310.00   42.38971329   0.21603709
5312.00   42.83553696   0.21725968
5314.00   42.97063446   0.21721719
5316.00   42.61629486   0.21652587
5318.00   42.56422043   0.21638787
5320.00   42.27197266   0.21567838
5322.00   42.34620285   0.21555366
5324.00   42.69596863   0.21656746
5326.00   43.30155563   0.21788284
5328.00   43.21864319   0.21745910
5330.00   42.58947754   0.21641937
5332.00   42.35373688   0.21580780
5334.00   41.29670334   0.21342090
5336.00   40.78109360   0.21213232
5338.00   40.22864151   0.21103795
5340.00   40.55580139   0.21194179
5342.00   40.74881744   0.21259488
5344.00   41.50772095   0.21416654
5346.00   42.04389191   0.21572293
5348.00   43.30365753   0.21939494
5350.00   43.51010895   0.21962933
5352.00   43.78234863   0.22030486
5354.00   43.95054245   0.22124784
5356.00   44.49862671   0.22270691
5358.00   45.15474701   0.22375083
5360.00   45.45979691   0.22418246
5362.00   45.56422424   0.22411884
5364.00   45.40071487   0.22363678
5366.00   45.04097366   0.22275895
5368.00   44.20540237   0.22102325
5370.00   44.08909607   0.22111203
5372.00   44.40693283   0.22235818
5374.00   44.98571396   0.22440828
5376.00   45.12940216   0.22540581
5378.00   45.82312012   0.22667147
5380.00   45.89658356   0.22717318
5382.00   46.19525146   0.22803821
5384.00   45.87882996   0.22762500
5386.00   45.69271469   0.22747704
5388.00   45.27839661   0.22752345
5390.00   45.40899277   0.22877179
5392.00   44.92695618   0.22827598
5394.00   44.54806900   0.22759730
5396.00   43.58491898   0.22546113
5398.00   42.85918808   0.22452724
5400.00   42.98717499   0.22520675
5402.00   42.94232178   0.22559996
5404.00   43.87663269   0.22852735
5406.00   43.99292755   0.22959214
5408.00   44.16221619   0.23076259
5410.00   43.88369751   0.23109993
5412.00   44.17332840   0.23305728
5414.00   44.45225525   0.23470475
5416.00   43.89067078   0.23493135
5418.00   43.73774719   0.23571549
5420.00   44.56935501   0.23823901
5422.00   44.96866989   0.23992628
5424.00   45.10968399   0.24116877
5426.00   45.48233414   0.24297726
5428.00   45.43456650   0.24339215
5430.00   46.02073669   0.24547701
5432.00   45.64790344   0.24611929
5434.00   45.25413132   0.24607685
5436.00   45.26264572   0.24729776
5438.00   44.47639847   0.24657105
5440.00   43.79349518   0.24597438
5442.00   43.49121094   0.24629284
5444.00   44.20829773   0.24948841
5446.00   44.98446274   0.25259519
5448.00   44.71348572   0.25326666
5450.00   45.05848694   0.25563142
5452.00   45.47118378   0.25745827
5454.00   45.61249542   0.25899073
5456.00   45.49286652   0.26296541
5458.00   45.54299927   0.27560565
5460.00   45.99367905   0.28577098
5462.00   46.19675827   0.28533956
5464.00   45.30358505   0.27887067
5466.00   44.96844864   0.27430737
5468.00   44.90815735   0.27113733
5470.00   44.38448715   0.26777622
5472.00   44.85978699   0.26698306
5474.00   44.63257980   0.26567397
5476.00   43.89017487   0.26368243
5478.00   44.04592133   0.26479539
5480.00   44.21480942   0.26649368
5482.00   45.01675797   0.27013111
5484.00   45.39960480   0.27116162
5486.00   45.48439026   0.27141342
5488.00   46.15604401   0.27309006
5490.00   46.45494843   0.27395651
5492.00   46.86791229   0.27491617
5494.00   46.39860535   0.27352089
5496.00   45.80474472   0.27229127
5498.00   46.48062515   0.27405220
5500.00   45.73778915   0.27262363
5502.00   45.93317032   0.27340236
5504.00   45.43692780   0.27211305
5506.00   45.35521698   0.27212021
5508.00   45.74286652   0.27322382
5510.00   46.19688034   0.27492416
5512.00   46.19430542   0.27596459
5514.00   46.23270416   0.27718326
5516.00   46.42597198   0.27797946
5518.00   45.79098511   0.27683708
5520.00   46.22554779   0.27816811
5522.00   45.30502319   0.27597591
5524.00   44.89757538   0.27529660
5526.00   44.93302536   0.27513412
5528.00   45.27748871   0.27617845
5530.00   45.28177643   0.27627462
5532.00   44.53377533   0.27450976
5534.00   44.77236938   0.27523065
5536.00   44.47776794   0.27496767
5538.00   44.60306931   0.27598259
5540.00   44.58023453   0.27663881
5542.00   44.71794128   0.27803642
5544.00   44.56184006   0.27769372
5546.00   44.35578156   0.27813640
5548.00   43.37094498   0.27563187
5550.00   43.86349869   0.27783197
5552.00   43.04510498   0.27624464
5554.00   43.68971634   0.27876335
5556.00   43.65810013   0.27971777
5558.00   43.73816681   0.28056696
5560.00   44.12861633   0.28290063
5562.00   44.53134537   0.28508884
5564.00   44.03013611   0.28537759
5566.00   44.06804657   0.28610125
5568.00   44.74752808   0.28900835
5570.00   44.39110184   0.43556967
5572.00   44.11587906   0.43533134
5574.00   44.24758911   0.43839478
5576.00   44.26358032   0.43895027
5578.00   44.09852219   0.43566218
5580.00   43.85234451   0.42905593
5582.00   43.71246338   0.42100656
5584.00   43.64637375   0.41097549
5586.00   44.03141403   0.40259066
5588.00   44.26559830   0.39630058
5590.00   43.96236801   0.39165190
5592.00   43.90640640   0.38907719
5594.00   44.12459183   0.38738954
5596.00   43.96427536   0.38439524
5598.00   43.54519653   0.38045010
5600.00   43.27988815   0.37699059
5602.00   43.17863083   0.37414360
5604.00   42.96155167   0.37124753
5606.00   42.95029068   0.36918572
5608.00   43.13975906   0.36747766
5610.00   43.25571823   0.36524749
5612.00   42.97578049   0.36629787
5614.00   42.90117264   0.36526856
5616.00   43.05473328   0.36128864
5618.00   43.24113083   0.35712302
5620.00   43.16516113   0.35797128
5622.00   43.15916061   0.35559735
5624.00   43.01701355   0.35354462
5626.00   42.76610947   0.35072353
5628.00   42.52433395   0.34792149
5630.00   42.46001053   0.35029852
5632.00   42.40272903   0.34584203
5634.00   42.00987244   0.34058216
5636.00   41.31569290   0.33603427
5638.00   40.71498489   0.33275869
5640.00   41.18793869   0.33289409
5642.00   40.77370834   0.33014032
5644.00   40.44253159   0.32762602
5646.00   40.39117813   0.32606399
5648.00   40.33090591   0.32459226
5650.00   39.70137024   0.32136801
5652.00   39.24955750   0.31861404
5654.00   39.00574875   0.31668273
5656.00   38.80867386   0.31502545
5658.00   38.41729355   0.31272686
5660.00   37.88658524   0.31045118
5662.00   37.09971237   0.31344846
5664.00   36.42176819   0.32259211
5666.00   36.13040161   0.33701554
5668.00   36.25643539   0.35527852
5670.00   36.19437027   0.35605589
5672.00   35.93138123   0.33925191
5674.00   35.63278198   0.32910731
5676.00   35.59951782   0.34051991
5678.00   36.25757980   0.35647687
5680.00   36.42024231   0.35493422
5682.00   36.68214798   0.33649865
5684.00   37.05890274   0.31902954
5686.00   37.33848190   0.31739470
5688.00   37.23266602   0.31136894
5690.00   37.27109909   0.30778655
5692.00   37.34836197   0.30504534
5694.00   37.46813202   0.30245137
5696.00   37.65112305   0.29998377
5698.00   37.69874191   0.29765442
5700.00   38.09416580   0.29659608
5702.00   38.40073776   0.29575193
5704.00   38.45581436   0.29463026
5706.00   38.41830826   0.29346129
5708.00   38.50436401   0.29257381
5710.00   38.46294785   0.29145586
5712.00   38.26827621   0.28992262
5714.00   38.01001358   0.28817829
5716.00   37.86082077   0.28680184
5718.00   37.90351486   0.28576642
5720.00   37.91040421   0.28481790
5722.00   37.87482834   0.28383937
5724.00   37.81115341   0.28272903
5726.00   37.65500259   0.28134033
5728.00   37.49507904   0.27993742
5730.00   37.22186279   0.27827367
5732.00   36.84834290   0.27635625
5734.00   36.47817230   0.27443573
5736.00   36.31100464   0.27309808
5738.00   36.31348038   0.27252853
5740.00   36.25604248   0.27177420
5742.00   36.28531265   0.27131414
5744.00   36.62918472   0.27200517
5746.00   36.72129440   0.27193424
5748.00   36.65916824   0.27133048
5750.00   36.63663864   0.27085087
5752.00   36.69386673   0.27058229
5754.00   36.69730759   0.27002665
5756.00   36.40169144   0.26882288
5758.00   36.08577347   0.26791438
5760.00   35.81901550   0.26744667
5762.00   35.65772629   0.26750842
5764.00   35.67361450   0.26827964
5766.00   35.66751480   0.26918224
5768.00   35.65747070   0.26961803
5770.00   35.64674377   0.26937285
5772.00   35.59649658   0.26831099
5774.00   35.39264297   0.26614758
5776.00   34.96613312   0.26300088
5778.00   34.68612289   0.26051614
5780.00   34.54432678   0.25917232
5782.00   34.36890793   0.25863358
5784.00   34.04397202   0.25803074
5786.00   33.97143555   0.25860158
5788.00   34.14656830   0.26002449
5790.00   34.47934341   0.26158068
5792.00   34.81901932   0.26243636
5794.00   34.92410278   0.26202229
5796.00   35.35363770   0.26169297
5798.00   35.72812271   0.26117647
5800.00   35.78020859   0.26011467
5802.00   35.52346420   0.25839940
5804.00   35.42127991   0.25767118
5806.00   35.46813583   0.25753105
5808.00   35.52096939   0.25735459
5810.00   35.51848221   0.25696218
5812.00   35.57789230   0.25694314
5814.00   35.55498886   0.25666967
5816.00   35.62219620   0.25661421
5818.00   35.62629318   0.25647557
5820.00   35.50714493   0.25612149
5822.00   35.66304398   0.25637043
5824.00   35.73995590   0.25642565
5826.00   35.55187607   0.25585636
5828.00   35.36482620   0.25529823
5830.00   35.51959991   0.25557873
5832.00   35.81085968   0.25627038
5834.00   35.78430557   0.25625274
5836.00   35.80186844   0.25628534
5838.00   35.92230225   0.25651786
5840.00   35.99245834   0.25667769
5842.00   36.22132874   0.25729093
5844.00   36.46995926   0.25799450
5846.00   36.59337997   0.25841847
5848.00   36.67251587   0.25873575
5850.00   36.96746445   0.25954258
5852.00   36.72372055   0.25888503
5854.00   36.36951447   0.25788566
5856.00   36.21136475   0.25748560
5858.00   36.24815750   0.25775599
5860.00   36.02279663   0.25741377
5862.00   36.08948135   0.25792149
5864.00   36.27546692   0.25889361
5866.00   36.54438400   0.26011896
5868.00   36.91405869   0.26145068
5870.00   37.46926880   0.26286733
5872.00   37.85837936   0.26378262
5874.00   38.05244827   0.26427898
5876.00   38.13259888   0.26502478
5878.00   38.21669006   0.26687941
5880.00   38.31341934   0.27006924
5882.00   38.20039368   0.27578524
5884.00   37.99157333   0.28500816
5886.00   37.87201309   0.29719856
5888.00   37.98002243   0.31024075
5890.00   37.90095901   0.31859598
5892.00   38.12945175   0.32448319
5894.00   38.58023453   0.32564649
5896.00   39.04231262   0.32040828
5898.00   39.30448914   0.30872047
5900.00   39.75182724   0.29865363
5902.00   40.33227158   0.28911066
5904.00   40.59326553   0.28051093
5906.00   40.46697617   0.27492598
5908.00   40.72314835   0.27684417
5910.00   40.96298218   0.27983859
5912.00   41.03908539   0.28338793
5914.00   41.12913895   0.27283686
5916.00   41.40000534   0.27382606
5918.00   41.62684250   0.28551099
5920.00   41.61692429   0.28181422
5922.00   41.61684799   0.28098777
5924.00   41.70189285   0.28029224
5926.00   41.77197266   0.27684000
5928.00   41.43896484   0.27404287
5930.00   41.15823746   0.27263537
5932.00   41.18263245   0.27237889
5934.00   41.31879044   0.27237007
5936.00   41.13128281   0.27160546
5938.00   41.31988907   0.27154288
5940.00   41.65443420   0.27200642
5942.00   41.84076309   0.27224794
5944.00   41.83335876   0.27340195
5946.00   41.91944885   0.27838311
5948.00   42.18330002   0.27495033
5950.00   42.31483841   0.27301905
5952.00   42.40871429   0.27311531
5954.00   42.43777847   0.27313545
5956.00   41.90903854   0.27133748
5958.00   41.59669495   0.26977503
5960.00   41.22478104   0.26887038
5962.00   40.38520432   0.26788363
5964.00   38.88783264   0.26504961
5966.00   37.31758118   0.25669917
5968.00   35.95291901   0.25195605
5970.00   35.00830078   0.24924637
5972.00   34.78925705   0.24859226
5974.00   35.50236130   0.25075093
5976.00   36.81648636   0.25459990
5978.00   38.28874969   0.25875339
5980.00   39.66546249   0.26250473
5982.00   40.71219635   0.26525488
5984.00   41.25713730   0.26659164
5986.00   41.33776093   0.26661435
5988.00   41.38007355   0.26635793
5990.00   41.37681198   0.26614475
5992.00   41.30704880   0.26597854
5994.00   41.24271393   0.26562044
5996.00   41.14837646   0.26533571
5998.00   41.21133041   0.26533028
6000.00   41.20874405   0.26502386
6002.00   40.99623108   0.26418743
6004.00   40.85823059   0.26386872
6006.00   40.67398071   0.26313302
6008.00   40.64018250   0.26272282
6010.00   40.62512207   0.26235911
6012.00   40.44720078   0.26158980
6014.00   40.26282501   0.26094010
6016.00   40.15649033   0.26049531
6018.00   40.05962753   0.25996450
6020.00   39.98988724   0.25948876
6022.00   39.98236084   0.25952756
6024.00   39.80793381   0.26075137
6026.00   39.53840637   0.26068059
6028.00   39.27468872   0.26114517
6030.00   39.09918594   0.26151645
6032.00   39.03282547   0.25878170
6034.00   38.73576736   0.25598064
6036.00   38.63349152   0.25478932
6038.00   38.61543274   0.25458834
6040.00   38.62139893   0.25459841
6042.00   38.82767868   0.25479823
6044.00   38.90366745   0.25492129
6046.00   38.91867447   0.25475845
6048.00   38.91291428   0.25446272
6050.00   38.85520172   0.25409788
6052.00   38.53050232   0.25313723
6054.00   38.42958450   0.25285265
6056.00   38.38810730   0.25262639
6058.00   38.15552139   0.25179148
6060.00   37.64676285   0.25023308
6062.00   37.52021408   0.24991177
6064.00   37.54947281   0.24975669
6066.00   37.48335648   0.24930699
6068.00   37.33456802   0.24871536
6070.00   37.31040573   0.24855386
6072.00   37.50930786   0.24911027
6074.00   37.67016220   0.24942398
6076.00   37.46269608   0.24870388
6078.00   37.03136063   0.24738713
6080.00   36.96090698   0.24701279
6082.00   36.56604385   0.24572788
6084.00   36.43362045   0.24524820
6086.00   36.26412964   0.24473839
6088.00   35.94047928   0.24380696
6090.00   35.95898438   0.24372949
6092.00   35.81973648   0.24336882
6094.00   35.60973740   0.24282570
6096.00   35.49198914   0.24250863
6098.00   35.53193665   0.24266879
6100.00   35.46892929   0.24286246
6102.00   35.27661133   0.24256139
6104.00   35.24682236   0.24294247
6106.00   35.37922287   0.24403022
6108.00   35.52833939   0.24527304
6110.00   35.70339203   0.24670522
6112.00   35.68452454   0.24725936
6114.00   35.67101669   0.24737014
6116.00   35.69908524   0.24703522
6118.00   35.66985321   0.24596493
6120.00   35.69385147   0.24496484
6122.00   35.72637558   0.24403495
6124.00   35.65498352   0.24296491
6126.00   35.50111389   0.24190234
6128.00   35.44260406   0.24140888
6130.00   35.43750000   0.24120231
6132.00   35.33643723   0.24073716
6134.00   35.15336609   0.23999353
6136.00   34.96426392   0.23924923
6138.00   34.87007141   0.23902376
6140.00   34.69093704   0.23851831
6142.00   34.58892441   0.23818783
6144.00   34.57145691   0.23805250
6146.00   34.61337280   0.23805784
6148.00   34.80052567   0.23845313
6150.00   34.72963715   0.23845696
6152.00   34.75431824   0.23869722
6154.00   34.81013107   0.23900032
6156.00   34.65359879   0.23885167
6158.00   34.42071152   0.23852748
6160.00   34.08388901   0.23739739
6162.00   33.74481583   0.23596323
6164.00   33.50541306   0.23462570
6166.00   33.40666580   0.23348229
6168.00   33.09086227   0.23177178
6170.00   33.10689926   0.23111098
6172.00   33.18150330   0.23083884
6174.00   33.08583450   0.23025768
6176.00   32.85064316   0.22922122
6178.00   32.74604797   0.22860090
6180.00   32.49832916   0.22765808
6182.00   32.25252914   0.22676711
6184.00   32.12558365   0.22622526
6186.00   31.94490051   0.22554864
6188.00   31.92071533   0.22528829
6190.00   31.92849159   0.22516668
6192.00   31.98869896   0.22532876
6194.00   32.10689163   0.22577959
6196.00   32.06108475   0.22560520
6198.00   32.02921677   0.22548676
6200.00   31.82026100   0.22476669
6202.00   31.51021004   0.22369777
6204.00   31.31261253   0.22302003
6206.00   31.22148705   0.22276151
6208.00   31.16346169   0.22269213
6210.00   31.14486122   0.22266544
6212.00   31.18096352   0.22256787
6214.00   31.25592995   0.22228546
6216.00   30.96728516   0.22104399
6218.00   30.74188423   0.22009440
6220.00   30.60393333   0.21947424
6222.00   30.57009888   0.21919338
6224.00   30.73587608   0.21951683
6226.00   31.04052544   0.22030015
6228.00   31.26972961   0.22110526
6230.00   31.29519653   0.22165008
6232.00   31.15777779   0.22198717
6234.00   31.18674278   0.22278541
6236.00   31.00356865   0.22281604
6238.00   30.82716942   0.22244065
6240.00   30.58568764   0.22136289
6242.00   30.18795776   0.21939044
6244.00   29.90161705   0.21749346
6246.00   29.79487038   0.21626759
6248.00   29.67547035   0.21525192
6250.00   29.71021461   0.21510293
6252.00   30.21201515   0.21707685
6254.00   30.93077278   0.22204971
6256.00   31.24747276   0.22274017
6258.00   31.27082634   0.22229064
6260.00   31.30932045   0.22265506
6262.00   31.68895912   0.22325122
6264.00   31.87563515   0.22405894
6266.00   31.95430946   0.22320950
6268.00   31.91829872   0.22177677
6270.00   31.81880951   0.22130172
6272.00   31.79656029   0.22287662
6274.00   31.64059448   0.22252814
6276.00   31.77742958   0.22327447
6278.00   31.96344948   0.22495198
6280.00   31.98743439   0.22624321
6282.00   32.27007675   0.22551362
6284.00   32.35977936   0.22566535
6286.00   32.62404251   0.22594637
6288.00   33.04993820   0.22710221
6290.00   33.36202621   0.22934090
6292.00   33.02942657   0.22813039
6294.00   32.79934692   0.22944927
6296.00   32.60024643   0.23221560
6298.00   32.34309769   0.23450749
6300.00   32.04788589   0.23497464
6302.00   32.40987015   0.23785289
6304.00   32.79808426   0.23934333
6306.00   32.90433884   0.23626149
6308.00   32.80569077   0.23014557
6310.00   32.91548538   0.22738014
6312.00   32.79869080   0.22458029
6314.00   32.63863754   0.22238052
6316.00   32.68517685   0.22173882
6318.00   32.95872116   0.22269218
6320.00   33.08334732   0.22369647
6322.00   33.17657852   0.22330771
6324.00   33.13103104   0.22284067
6326.00   32.96696472   0.22266686
6328.00   32.81320953   0.22268467
6330.00   32.94688797   0.22241484
6332.00   33.14283371   0.22297506
6334.00   33.17596436   0.22233649
6336.00   33.11999893   0.22144277
6338.00   33.16938782   0.22196211
6340.00   33.26584244   0.22138184
6342.00   33.36627197   0.22094603
6344.00   33.47062683   0.22128664
6346.00   33.66772461   0.22221832
6348.00   34.07965088   0.22315145
6350.00   34.64645386   0.22588281
6352.00   34.95588684   0.22677463
6354.00   35.09077835   0.22698088
6356.00   35.12675858   0.22738017
6358.00   35.04283142   0.22767203
6360.00   35.18167114   0.22925468
6362.00   35.25180054   0.23047899
6364.00   35.18791962   0.22991107
6366.00   35.10131836   0.22790647
6368.00   35.30292892   0.22788613
6370.00   35.59141159   0.22712882
6372.00   35.84059143   0.22646247
6374.00   35.99684906   0.22620034
6376.00   36.05187988   0.22629070
6378.00   35.99382019   0.22611196
6380.00   35.98730850   0.22622870
6382.00   35.90761566   0.22617066
6384.00   35.84241867   0.22597595
6386.00   35.94110489   0.22591925
6388.00   36.03467178   0.22580217
6390.00   36.23371506   0.22605629
6392.00   36.45701218   0.22640432
6394.00   36.65197372   0.22672470
6396.00   36.79141617   0.22702436
6398.00   36.64435959   0.22660482
6400.00   36.41887665   0.22589333
6402.00   36.33689499   0.22556615
6404.00   36.47240829   0.22586174
6406.00   36.69598389   0.22636499
6408.00   36.94975662   0.22692509
6410.00   37.35094070   0.22797044
6412.00   37.75466537   0.22902514
6414.00   37.96577454   0.22951478
6416.00   37.83145523   0.22916488
6418.00   37.79230881   0.22892366
6420.00   37.77584457   0.22867817
6422.00   37.70688248   0.22825901
6424.00   37.58026123   0.22768347
6426.00   37.64507675   0.22771156
6428.00   37.74493790   0.22783260
6430.00   37.86678314   0.22804262
6432.00   37.95196915   0.22815756
6434.00   37.97184372   0.22805493
6436.00   38.22702789   0.22859061
6438.00   38.13853836   0.22826980
6440.00   37.91218567   0.22761571
6442.00   37.73570633   0.22708534
6444.00   37.67033005   0.22679941
6446.00   37.57249832   0.22641695
6448.00   37.61358643   0.22647421
6450.00   37.79668045   0.22695689
6452.00   38.06821060   0.22772373
6454.00   38.34930801   0.22862546
6456.00   38.62150955   0.22939229
6458.00   38.81025314   0.23009057
6460.00   38.93056107   0.23011436
6462.00   39.00469589   0.23060746
6464.00   38.93190384   0.23596995
6466.00   39.69116592   0.23220539
6468.00   40.47006226   0.23250711
6470.00   40.38621140   0.23244107
6472.00   39.24930573   0.24406381
6474.00   39.21233749   0.23816673
6476.00   39.05749893   0.23441775
6478.00   38.86652756   0.23240447
6480.00   38.75071716   0.23146431
6482.00   38.77434921   0.23101191
6484.00   38.72360611   0.23133238
6486.00   38.72898865   0.23066367
6488.00   38.88333130   0.22970052
6490.00   39.13219070   0.22914107
6492.00   39.28684616   0.22928588
6494.00   39.30151367   0.23007667
6496.00   39.22120285   0.23054536
6498.00   39.08413696   0.23051186
6500.00   38.94929886   0.23020746
6502.00   38.89385986   0.23017184
6504.00   39.06026077   0.23021781
6506.00   39.23243713   0.22992246
6508.00   39.27045059   0.22935820
6510.00   39.19244766   0.22883695
6512.00   39.32533646   0.22881295
6514.00   39.31443787   0.22843391
6516.00   39.26762390   0.22815089
6518.00   39.21020508   0.22804447
6520.00   39.16374969   0.22805224
6522.00   39.28550720   0.22830354
6524.00   39.45898056   0.22869487
6526.00   39.70536423   0.22952305
6528.00   39.85137939   0.23028553
6530.00   39.67457199   0.23013948
6532.00   39.55527878   0.22993760
6534.00   39.48768234   0.22962709
6536.00   39.34632492   0.22907095
6538.00   39.14323807   0.22828539
6540.00   39.05289078   0.22748899
6542.00   39.00047684   0.22711082
6544.00   39.16331482   0.22735620
6546.00   39.36727905   0.22784825
6548.00   39.45214844   0.22830145
6550.00   39.42927551   0.22887713
6552.00   39.53377151   0.22916420
6554.00   39.66638565   0.22941947
6556.00   39.77116013   0.22970967
6558.00   39.81896591   0.22989525
6560.00   39.80939865   0.22944237
6562.00   39.87781906   0.22924037
6564.00   39.87868500   0.22910345
6566.00   39.77874374   0.22878270
6568.00   39.63750839   0.22815299
6570.00   39.61143875   0.22770293
6572.00   39.54617691   0.22768076
6574.00   39.49026871   0.22774826
6576.00   39.33282089   0.22736342
6578.00   38.89877701   0.22608322
6580.00   38.54542160   0.22489341
6582.00   38.23247147   0.22372119
6584.00   38.07786179   0.22272456
6586.00   38.13673401   0.22222291
6588.00   38.36167145   0.22263043
6590.00   38.82249451   0.22395341
6592.00   39.27942276   0.22524662
6594.00   39.65580368   0.22629206
6596.00   39.89784241   0.22698635
6598.00   39.91714478   0.22706945
6600.00   39.75413132   0.22684439
6602.00   39.57812119   0.22652054
6604.00   39.49061203   0.22620626
6606.00   39.51239395   0.22593765
6608.00   39.56329727   0.22575432
6610.00   39.45750046   0.22524178
6612.00   39.43272018   0.22487891
6614.00   39.54491806   0.22487909
6616.00   39.67469788   0.22508226
6618.00   39.43836594   0.22442752
6620.00   39.47494125   0.22452736
6622.00   39.53204346   0.22468494
6624.00   39.51842880   0.22465630
6626.00   39.52991867   0.22471185
6628.00   39.34103012   0.22425272
6630.00   39.13906479   0.22377636
6632.00   39.01100540   0.22339272
6634.00   38.94800186   0.22304292
6636.00   38.83838272   0.22253269
6638.00   38.44088364   0.22143771
6640.00   38.01280212   0.22010921
6642.00   37.53813553   0.21861029
6644.00   36.94580460   0.21689339
6646.00   36.21757507   0.21486139
6648.00   35.26228333   0.21217163
6650.00   34.63527298   0.21020977
6652.00   34.46259308   0.20981415
6654.00   34.65686798   0.21097308
6656.00   35.15987015   0.21218698
6658.00   35.95501709   0.21380474
6660.00   36.57716751   0.21532720
6662.00   36.90549088   0.21641695
6664.00   37.11473846   0.21705715
6666.00   37.52264786   0.21812195
6668.00   37.83257294   0.21884342
6670.00   38.02222061   0.21931033
6672.00   38.13381577   0.21958809
6674.00   38.21062851   0.21958977
6676.00   37.83612823   0.21850486
6678.00   37.31778717   0.21700935
6680.00   36.95962143   0.21597053
6682.00   36.84203339   0.21561714
6684.00   36.72118759   0.21518874
6686.00   36.81407166   0.21538043
6688.00   36.99359131   0.21577407
6690.00   37.14479446   0.21611738
6692.00   37.13794708   0.21609378
6694.00   36.78266907   0.21507765
6696.00   36.62096786   0.21458590
6698.00   36.48899460   0.21427368
6700.00   36.42697525   0.21420698
6702.00   36.50613403   0.21451496
6704.00   36.62572098   0.21503527
6706.00   36.64677048   0.21533906
6708.00   36.63911819   0.21530719
6710.00   36.61810684   0.21501863
6712.00   36.53564453   0.21460146
6714.00   36.22310257   0.21354945
6716.00   35.98630142   0.21263331
6718.00   35.77189255   0.21184158
6720.00   35.57923889   0.21119218
6722.00   35.48858643   0.21079384
6724.00   35.35115051   0.21039283
6726.00   35.26373672   0.21012600
6728.00   35.19115067   0.20977370
6730.00   35.11005783   0.20933346
6732.00   35.05754471   0.20923550
6734.00   35.01603317   0.20914252
6736.00   34.98191452   0.20898940
6738.00   34.91955566   0.20884664
6740.00   34.83716965   0.20877720
6742.00   34.88664246   0.20871675
6744.00   34.77201080   0.20831080
6746.00   34.55503845   0.20767330
6748.00   34.31097412   0.20692439
6750.00   34.09706116   0.20618697
6752.00   33.85253525   0.20555373
6754.00   33.68905640   0.20508218
6756.00   33.77531052   0.20519809
6758.00   33.93636322   0.20553084
6760.00   33.83130264   0.20529340
6762.00   33.81950378   0.20516400
6764.00   33.69586945   0.20467396
6766.00   33.50878143   0.20409702
6768.00   33.35983658   0.20369069
6770.00   33.34585953   0.20353289
6772.00   33.18482971   0.20312266
6774.00   33.28425980   0.20395590
6776.00   33.48931503   0.20567350
6778.00   33.58170700   0.20817159
6780.00   33.48649216   0.21265300
6782.00   33.30065536   0.21090555
6784.00   33.15451050   0.20957309
6786.00   33.04902649   0.20942833
6788.00   32.96789932   0.21054924
6790.00   33.02725601   0.20096666
6792.00   32.81776810   0.20035544
6794.00   32.66502762   0.19988577
6796.00   32.63251114   0.21216248
6798.00   32.61920547   0.21055734
6800.00   32.54187393   0.20656766
6802.00   32.26097107   0.20582032
6804.00   32.07686234   0.20483772
6806.00   31.95726013   0.20297571
6808.00   31.65878105   0.20234090
6810.00   31.82835197   0.20112188
6812.00   31.74468994   0.20080580
6814.00   31.71563148   0.20111652
6816.00   31.88272667   0.20136584
6818.00   31.99439049   0.20086305
6820.00   32.07658005   0.20095946
6822.00   32.00175095   0.20101392
6824.00   31.93128014   0.20163809
6826.00   31.91789818   0.20279224
6828.00   31.66870880   0.20270056
6830.00   31.37965965   0.20316195
6832.00   31.27441406   0.20332962
6834.00   31.26780510   0.20273532
6836.00   31.17498016   0.20127957
6838.00   30.90045738   0.19937219
6840.00   31.00364113   0.19844575
6842.00   31.11308289   0.19769545
6844.00   31.18906212   0.19741617
6846.00   31.37243080   0.19824076
6848.00   31.60740662   0.19918764
6850.00   31.68529510   0.19888170
6852.00   31.58193016   0.19812983
6854.00   31.48856544   0.19803393
6856.00   31.66845131   0.19935757
6858.00   31.47991180   0.19992621
6860.00   31.16951180   0.20022483
6862.00   30.87461853   0.20136793
6864.00   30.69275665   0.20483774
6866.00   30.66923332   0.21203561
6868.00   31.43210411   0.22611217
6870.00   32.06853104   0.23929290
6872.00   32.09664536   0.24268563
6874.00   31.56688499   0.23431264
6876.00   31.28315735   0.22605032
6878.00   31.18107605   0.21909349
6880.00   30.90295219   0.21122997
6882.00   30.50896645   0.20478944
6884.00   30.28385735   0.20324831
6886.00   30.59377289   0.20629770
6888.00   30.93757057   0.21079208
6890.00   31.16207886   0.21370123
6892.00   31.20225525   0.21400075
6894.00   31.10906410   0.21258764
6896.00   31.15473175   0.21260428
6898.00   31.19831848   0.21200944
6900.00   31.02641106   0.20953238
6902.00   30.74184608   0.20640792
6904.00   30.71912956   0.20588271
6906.00   30.89012146   0.20636366
6908.00   30.75235558   0.20530868
6910.00   30.56464577   0.20329957
6912.00   30.60480690   0.20251440
6914.00   30.92100334   0.20599131
6916.00   31.03368950   0.20919065
6918.00   31.13204002   0.21118605
6920.00   31.17482948   0.21414508
6922.00   31.10433006   0.20377943
6924.00   30.96113014   0.20260140
6926.00   30.83887291   0.20098138
6928.00   30.66327477   0.19946587
6930.00   30.40949440   0.20981152
6932.00   30.13076210   0.19742137
6934.00   30.05373955   0.19542564
6936.00   30.11926270   0.19463100
6938.00   30.29265404   0.19534652
6940.00   30.51869392   0.19701791
6942.00   30.71405029   0.19847359
6944.00   30.66053009   0.19886927
6946.00   30.60396767   0.19906032
6948.00   30.35372925   0.19818646
6950.00   30.00757408   0.19654940
6952.00   29.98277283   0.19580644
6954.00   30.39028358   0.19693369
6956.00   30.72412109   0.19721144
6958.00   30.92049408   0.19653171
6960.00   30.96275902   0.19543703
6962.00   30.75028992   0.19448644
6964.00   30.61742401   0.19432114
6966.00   30.62171173   0.19431777
6968.00   30.68585968   0.19448479
6970.00   30.70063019   0.19487296
6972.00   30.61276245   0.19503726
6974.00   30.70409966   0.19618009
6976.00   30.69400787   0.19648986
6978.00   30.65233612   0.19621281
6980.00   30.77685547   0.19642277
6982.00   31.04704857   0.19704813
6984.00   31.08133125   0.19658615
6986.00   30.98437309   0.19528003
6988.00   30.88260460   0.19405769
6990.00   30.88618660   0.19405185
6992.00   31.12349510   0.19501920
6994.00   31.27634430   0.19584410
6996.00   31.19427490   0.19565497
6998.00   30.97512245   0.19472335
7000.00   30.93704033   0.19446121
7002.00   30.87753868   0.19426894
7004.00   30.85310364   0.19432342
7006.00   30.91908073   0.19533135
7008.00   31.03597260   0.19690883
7010.00   31.00341988   0.19671045
7012.00   31.05040932   0.19691126
7014.00   31.20310974   0.19786777
7016.00   31.21430969   0.19809704
7018.00   30.89875603   0.19615091
7020.00   30.47500038   0.19223277
7022.00   30.48650169   0.19210251
7024.00   30.53479004   0.19281834
7026.00   30.51326942   0.19296338
7028.00   30.52159691   0.19257636
7030.00   30.76499176   0.19353890
7032.00   30.92536736   0.19486342
7034.00   30.72347450   0.19435380
7036.00   30.34327888   0.19255777
7038.00   30.29628563   0.19222064
7040.00   30.62319374   0.19372325
7042.00   30.87712097   0.19602621
7044.00   30.81614113   0.19628976
7046.00   30.50676155   0.19424640
7048.00   30.33444405   0.19306527
7050.00   30.54900169   0.19382603
7052.00   30.74472237   0.19473749
7054.00   30.92951775   0.19579196
7056.00   31.08499718   0.19655491
7058.00   30.94170189   0.19495344
7060.00   30.67041206   0.19317912
7062.00   30.53840065   0.19267224
7064.00   30.54158974   0.19316071
7066.00   30.50393105   0.19340821
7068.00   30.11148071   0.19183147
7070.00   29.87441444   0.19108425
7072.00   29.83730125   0.19094990
7074.00   29.95571899   0.19122541
7076.00   30.11792755   0.19166946
7078.00   30.18332863   0.19178438
7080.00   30.29039574   0.19207986
7082.00   30.41727638   0.19250554
7084.00   30.52556419   0.19296519
7086.00   30.57953453   0.19335039
7088.00   30.57405090   0.19331878
7090.00   30.47738647   0.19329941
7092.00   30.26242638   0.19258559
7094.00   30.06746483   0.19145864
7096.00   30.21326256   0.19168501
7098.00   30.39655495   0.19280653
7100.00   30.49578094   0.19359934
7102.00   30.39695740   0.19312255
7104.00   30.14311790   0.19152546
7106.00   30.05406189   0.19079901
7108.00   29.99973297   0.19155367
7110.00   29.98733711   0.19165973
7112.00   29.92799950   0.19079314
7114.00   29.78968239   0.18974924
7116.00   29.84189606   0.19003440
7118.00   29.97779274   0.19054790
7120.00   30.00611305   0.19068949
7122.00   30.00970650   0.19087608
7124.00   30.18351173   0.19183552
7126.00   30.26914024   0.19214080
7128.00   30.26709175   0.19234455
7130.00   30.22406578   0.19195034
7132.00   30.17235756   0.19117843
7134.00   30.13863564   0.19099341
7136.00   30.43967247   0.19180019
7138.00   30.87917328   0.19354041
7140.00   31.26091957   0.19577412
7142.00   31.37924004   0.19718988
7144.00   31.05655098   0.19559526
7146.00   30.37401390   0.19300902
7148.00   29.72834206   0.19032097
7150.00   29.53042030   0.18949741
7152.00   29.73841667   0.19071938
7154.00   29.34114838   0.18976665
7156.00   28.98884392   0.18791728
7158.00   28.97574806   0.18754531
7160.00   29.08131599   0.18818371
7162.00   28.97154236   0.18817681
7164.00   28.90734291   0.18707462
7166.00   28.99153328   0.18771924
7168.00   29.24391747   0.18951233
7170.00   29.57766533   0.19133656
7172.00   29.83319855   0.19221564
7174.00   29.84771919   0.19329925
7176.00   29.63294983   0.19269775
7178.00   29.59185219   0.19288009
7180.00   29.58083153   0.19343288
7182.00   28.93213463   0.19083899
7184.00   28.54177856   0.18967600
7186.00   28.70465088   0.19087525
7188.00   28.85576439   0.19187881
7190.00   28.69592285   0.19098449
7192.00   28.69291687   0.18920201
7194.00   29.08626556   0.19134055
7196.00   29.32030678   0.19290327
7198.00   29.33191872   0.19287638
7200.00   29.24062538   0.19197784
7202.00   29.14676094   0.19224040
7204.00   29.00348854   0.19151659
7206.00   28.81408691   0.19021668
7208.00   28.69969940   0.18851833
7210.00   28.76092720   0.18694687
7212.00   28.79194832   0.18813293
7214.00   28.77273369   0.18708515
7216.00   28.76906395   0.18693624
7218.00   28.82545471   0.18795669
7220.00   28.89634514   0.18794918
7222.00   28.41221428   0.18663639
7224.00   28.21253014   0.18528970
7226.00   28.23643494   0.18531172
7228.00   28.30289268   0.18642025
7230.00   28.27256012   0.18661578
7232.00   28.41092873   0.18836980
7234.00   28.77439308   0.19266021
7236.00   28.95200920   0.19730742
7238.00   28.77381897   0.20047142
7240.00   28.70130920   0.20225964
7242.00   28.45830536   0.20335276
7244.00   28.25151062   0.20213132
7246.00   28.17112160   0.19916703
7248.00   28.26356316   0.19618247
7250.00   28.60721397   0.19567631
7252.00   28.88446999   0.19415207
7254.00   29.04099083   0.19314198
7256.00   29.02626991   0.19261467
7258.00   28.81334114   0.19138217
7260.00   28.34165001   0.18680423
7262.00   28.34490013   0.18684441
7264.00   28.68816185   0.18914033
7266.00   29.09898567   0.19138192
7268.00   29.29962730   0.19257469
7270.00   29.31041527   0.19409327
7272.00   29.08560181   0.19721901
7274.00   28.88204765   0.20042004
7276.00   28.83049583   0.20219457
7278.00   28.82666779   0.20188296
7280.00   28.81661415   0.20212324
7282.00   28.63141060   0.19861533
7284.00   28.37659645   0.19320612
7286.00   28.22575569   0.18956576
7288.00   28.30007935   0.19118041
7290.00   28.75138855   0.19268425
7292.00   28.87875938   0.19234608
7294.00   28.74295998   0.19043048
7296.00   28.67147636   0.18872839
7298.00   28.74297905   0.19030435
7300.00   28.83901024   0.19181311
7302.00   28.70449257   0.19214571
7304.00   28.52835083   0.19163217
7306.00   28.64015961   0.19132920
7308.00   28.61362267   0.19090597
7310.00   28.67747688   0.19065644
7312.00   28.81828308   0.19243342
7314.00   28.99793434   0.19587968
7316.00   29.17131805   0.19863857
7318.00   29.27008820   0.19971849
7320.00   29.12463379   0.19701438
7322.00   29.04431152   0.19333704
7324.00   29.23135185   0.19176012
7326.00   29.59568214   0.19375730
7328.00   29.65044212   0.19406332
7330.00   29.49235535   0.19291854
7332.00   29.52294350   0.19141215
7334.00   29.85188293   0.19597004
7336.00   29.76993370   0.19403103
7338.00   29.77594948   0.19577703
7340.00   29.81574440   0.20967038
7342.00   29.82915306   0.20222779
7344.00   29.76969910   0.20079438
7346.00   29.68653297   0.19648139
7348.00   29.57653618   0.19263840
7350.00   29.45948792   0.18960094
7352.00   29.43772888   0.18875672
7354.00   29.58777428   0.19114502
7356.00   29.55605507   0.19280136
7358.00   29.60677528   0.19295700
7360.00   29.64640236   0.19281273
7362.00   29.70728111   0.19342057
7364.00   29.94950104   0.19524288
7366.00   30.18272400   0.19871674
7368.00   30.22283936   0.20114343
7370.00   30.05203819   0.20045131
7372.00   29.78395081   0.19715261
7374.00   29.63955116   0.19526756
7376.00   29.81799126   0.19314599
7378.00   29.90929222   0.19153464
7380.00   29.73711967   0.18966299
7382.00   29.35698509   0.18739815
7384.00   29.13821602   0.18723957
7386.00   28.96352196   0.18749319
7388.00   28.91347504   0.18811150
7390.00   29.12661171   0.18943667
7392.00   29.62391853   0.19169368
7394.00   29.96148872   0.19412524
7396.00   29.97880745   0.19449699
7398.00   29.99328041   0.19471501
7400.00   30.12055969   0.19570398
7402.00   30.28923225   0.19718154
7404.00   30.47653389   0.19759260
7406.00   30.43609047   0.19687843
7408.00   30.30805397   0.19454406
7410.00   30.21778107   0.19169199
7412.00   30.19520760   0.19087160
7414.00   30.10542297   0.19008969
7416.00   30.15870857   0.19012849
7418.00   30.14539146   0.19009160
7420.00   29.98056793   0.18954712
7422.00   29.93013954   0.18937773
7424.00   29.90833282   0.18977410
7426.00   29.92346764   0.19042790
7428.00   30.03588295   0.19113082
7430.00   30.26215935   0.19186361
7432.00   30.47442436   0.19296515
7434.00   30.62646675   0.19442773
7436.00   30.68888664   0.19506502
7438.00   30.68651009   0.19489913
7440.00   30.65899658   0.19453473
7442.00   30.56832695   0.19405852
7444.00   30.49662209   0.19280137
7446.00   30.44332695   0.19151340
7448.00   30.36547661   0.19061230
7450.00   30.21618652   0.19009489
7452.00   30.11273766   0.18980718
7454.00   30.16452789   0.19003688
7456.00   30.10319710   0.19000952
7458.00   29.88915062   0.18965711
7460.00   29.81127357   0.18988611
7462.00   30.00351524   0.19097568
7464.00   30.22262001   0.19214022
7466.00   30.38043785   0.19321834
7468.00   30.50639915   0.19436894
7470.00   30.76805687   0.19606088
7472.00   30.90592003   0.19658904
7474.00   30.87078094   0.19652843
7476.00   30.77757454   0.19648744
7478.00   30.73750496   0.19672318
7480.00   30.66146278   0.19645792
7482.00   30.38302612   0.19554539
7484.00   30.18601418   0.19446413
7486.00   30.08075905   0.19328152
7488.00   29.95391273   0.19194414
7490.00   29.92462158   0.19104005
7492.00   30.11967659   0.19110386
7494.00   30.32699585   0.19144796
7496.00   30.42511559   0.19164495
7498.00   30.43329620   0.19166823
7500.00   30.57279968   0.19177656
7502.00   30.53367424   0.19142282
7504.00   30.36964989   0.19084422
7506.00   30.23394775   0.19041467
7508.00   30.29764366   0.19044495
7510.00   30.27512360   0.19040596
7512.00   30.02471733   0.18986773
7514.00   29.75863075   0.18931592
7516.00   29.67934227   0.18955268
7518.00   29.75113869   0.19134092
7520.00   29.91589355   0.19449890
7522.00   30.08937645   0.19674449
7524.00   30.17215538   0.19776158
7526.00   30.13753700   0.19805829
7528.00   30.15281868   0.19792747
7530.00   30.32477760   0.19617541
7532.00   30.47181129   0.19435988
7534.00   30.49555016   0.19319646
7536.00   30.38920021   0.19255699
7538.00   30.23687935   0.19161093
7540.00   30.08649635   0.19087987
7542.00   30.00168610   0.19048296
7544.00   29.99393272   0.19034493
7546.00   30.02965736   0.19027376
7548.00   30.17917633   0.19048946
7550.00   30.29069519   0.19088100
7552.00   30.42350578   0.19167858
7554.00   30.54646492   0.19259880
7556.00   30.46491241   0.19267017
7558.00   30.13689232   0.19181447
7560.00   30.06027222   0.19151790
7562.00   30.23676109   0.19177614
7564.00   30.50462914   0.19266468
7566.00   30.73374367   0.19560182
7568.00   30.81269073   0.19760974
7570.00   30.80545616   0.19855444
7572.00   30.86614418   0.19932987
7574.00   31.05286980   0.20045960
7576.00   30.98423004   0.19948344
7578.00   30.75580788   0.19605501
7580.00   30.48110199   0.19313334
7582.00   30.31779289   0.19224983
7584.00   30.36758995   0.19316687
7586.00   30.39109802   0.19403398
7588.00   30.05936623   0.19302879
#7590.00   29.40634155   0.19310822
#7592.00   28.88613701   0.19984585
#7594.00   29.19799805   0.21916552
7596.00   30.12030029   0.25719354
7598.00   30.30603027   0.29968038
7600.00   30.56555176   0.34759983
7602.00   31.42627716   0.39607361
7604.00   32.28376389   0.43408990
7606.00   31.85915565   0.41567394
7608.00   31.34042358   0.38966525
7610.00   31.37953186   0.35707906
7612.00   31.96386719   0.32497829
7614.00   32.11929703   0.28816545
7616.00   30.68291283   0.24978700
#7618.00   29.37008095   0.22108512
#7620.00   29.02235413   0.22020257
#7622.00   29.70777321   0.23223816
7624.00   30.70084381   0.25741184
7626.00   31.38278198   0.27789783
7628.00   31.76768684   0.28953803
7630.00   31.74626160   0.29123732
7632.00   31.21957970   0.28436303
7634.00   30.73545647   0.27378473
7636.00   30.84978676   0.26713178
7638.00   31.19923401   0.26335546
7640.00   31.32777405   0.25908747
7642.00   30.93704224   0.25078425
7644.00   30.73035240   0.24424052
7646.00   30.53867340   0.23892009
7648.00   30.48755455   0.23458301
7650.00   30.69194984   0.23136421
7652.00   31.16651917   0.23018992
7654.00   31.40400124   0.22817700
7656.00   31.24572754   0.22407620
7658.00   31.00571251   0.21983521
7660.00   31.02302551   0.21774352
7662.00   31.25106239   0.21762313
7664.00   31.01721001   0.21402980
7666.00   30.74312019   0.20938994
7668.00   30.64516449   0.20568562
7670.00   30.74790764   0.20403124
7672.00   30.88505745   0.20364486
7674.00   30.49577522   0.19958442
7676.00   30.29609680   0.19671084
7678.00   30.52471352   0.19719760
7680.00   30.86947060   0.19940370
7682.00   30.59558105   0.19737326
7684.00   30.35456276   0.19565703
7686.00   30.12835884   0.19491678
7688.00   29.99415779   0.19518822
7690.00   30.20266724   0.19628656
7692.00   30.30476952   0.19709362
7694.00   30.15636253   0.19626635
7696.00   29.97271156   0.19527178
7698.00   29.93541527   0.19507311
7700.00   29.96602821   0.19416709
7702.00   30.06581306   0.19558054
7704.00   29.97542572   0.19492753
7706.00   29.84228516   0.19437619
7708.00   29.89851952   0.19738109
7710.00   30.16423607   0.20378369
7712.00   30.18924141   0.20874102
7714.00   30.00740623   0.21061379
7716.00   29.72907829   0.20968632
7718.00   29.50952721   0.20738669
7720.00   29.50979042   0.20447648
7722.00   29.49385643   0.20083196
7724.00   29.48597145   0.19698000
7726.00   29.46814156   0.19378467
7728.00   29.38982582   0.19211318
7730.00   29.34121132   0.19137655
7732.00   29.52598000   0.19178118
7734.00   29.71676064   0.19252343
7736.00   29.78076744   0.19285715
7738.00   29.81701660   0.19246249
7740.00   29.90746498   0.19331975
7742.00   29.78724670   0.19273500
7744.00   29.66587830   0.19398046
7746.00   29.70101166   0.19897820
7748.00   29.67237282   0.20430344
7750.00   29.74727440   0.20580070
7752.00   29.87429237   0.20675494
7754.00   29.83056641   0.20637615
7756.00   29.47808266   0.20310692
7758.00   29.13881493   0.19779558
7760.00   28.89135170   0.19508250
7762.00   28.58973503   0.19331537
7764.00   28.31379890   0.19172078
7766.00   28.26363945   0.19045769
7768.00   28.51106453   0.19064350
7770.00   28.63684845   0.19082807
7772.00   28.61611176   0.19064730
7774.00   28.57536888   0.19056851
7776.00   28.70429993   0.19156377
7778.00   28.79277802   0.19286937
7780.00   28.95235634   0.19355284
7782.00   29.12589073   0.19421560
7784.00   29.20291328   0.19451706
7786.00   29.05968285   0.19251873
7788.00   28.95461273   0.19367911
7790.00   28.93089104   0.19720893
7792.00   28.90552521   0.19986744
7794.00   28.78970337   0.19951959
7796.00   28.57531166   0.19790740
7798.00   28.44557190   0.19567502
7800.00   28.32893372   0.19193800
7802.00   28.29182434   0.18909816
7804.00   28.45333290   0.19024719
7806.00   28.96498871   0.19583769
7808.00   29.10932159   0.19686258
7810.00   28.96108055   0.19560649
7812.00   28.56582451   0.19352572
7814.00   28.01070404   0.19155435
7816.00   27.82842255   0.19259535
7818.00   27.79410362   0.19491439
7820.00   27.79743958   0.19667596
7822.00   27.84578705   0.19740063
7824.00   28.06001282   0.19801480
7826.00   28.59507942   0.19861943
7828.00   28.81351280   0.19574316
7830.00   28.61073875   0.19042325
7832.00   28.29637909   0.18610720
7834.00   28.56731224   0.18789244
7836.00   28.90345955   0.19156979
7838.00   29.04642296   0.19401133
7840.00   29.01510048   0.19472866
7842.00   28.89193535   0.19425608
7844.00   28.61361694   0.19274588
7846.00   28.39160347   0.19323844
7848.00   28.16528511   0.19572811
7850.00   27.91539001   0.19868006
7852.00   27.69218254   0.20042564
7854.00   27.73342323   0.20149098
7856.00   27.90384483   0.20357485
7858.00   28.17104912   0.20405622
7860.00   28.41799927   0.20167626
7862.00   28.49549866   0.19714129
7864.00   28.37079430   0.19551386
7866.00   28.39330864   0.19609839
7868.00   28.51972961   0.19742835
7870.00   28.68928528   0.19850866
7872.00   28.88050842   0.19923936
7874.00   28.96940804   0.20002763
7876.00   28.87537384   0.19915104
7878.00   28.69255638   0.19733994
7880.00   28.49221611   0.19555168
7882.00   28.22197723   0.19400108
7884.00   28.01793671   0.19271995
7886.00   27.95072937   0.19343059
7888.00   27.97392464   0.19460869
7890.00   28.06664276   0.19484048
7892.00   28.43027496   0.19639178
7894.00   28.64291382   0.19573091
7896.00   28.64382172   0.19331147
7898.00   28.54136086   0.19063054
7900.00   28.50399780   0.18933381
7902.00   28.51632690   0.18895303
7904.00   28.54377747   0.18895739
7906.00   28.48034096   0.19007440
7908.00   28.42134094   0.19425388
7910.00   28.56809998   0.20267995
7912.00   28.66391945   0.20696683
7914.00   28.58976173   0.20775992
7916.00   28.58674622   0.20819481
7918.00   28.72955513   0.20829646
7920.00   28.82339478   0.20410259
7922.00   28.88543701   0.19998594
7924.00   29.03440094   0.19937460
7926.00   29.16175270   0.19998299
7928.00   29.17137337   0.19926834
7930.00   29.11139488   0.19745784
7932.00   28.86318398   0.19594415
7934.00   28.61934853   0.19475399
7936.00   28.51085854   0.19368275
7938.00   28.55044365   0.19239533
7940.00   28.52232361   0.19045959
7942.00   28.36562347   0.18976374
7944.00   28.50325012   0.19190238
7946.00   28.69508362   0.19451511
7948.00   28.49859047   0.19419248
7950.00   28.46224022   0.19297083
7952.00   28.61945534   0.19369167
7954.00   28.67189789   0.19281252
7956.00   28.52847481   0.19057731
7958.00   28.34535789   0.19097638
7960.00   28.43414879   0.19610222
7962.00   28.61840248   0.20137119
7964.00   28.76861382   0.20444848
7966.00   28.80108452   0.20459749
7968.00   28.70242500   0.20264201
7970.00   28.55300140   0.19824849
7972.00   28.52024841   0.19403704
7974.00   28.45527077   0.19259419
7976.00   28.26785278   0.19421117
7978.00   28.17971611   0.19509871
7980.00   27.98363686   0.19472776
7982.00   27.99752235   0.19463605
7984.00   28.14882851   0.19417578
7986.00   28.21702576   0.19297497
7988.00   28.07808876   0.19446933
7990.00   27.87055779   0.19808416
7992.00   28.03582191   0.20182742
7994.00   28.42732239   0.20501155
7996.00   28.52980042   0.20675270
7998.00   27.99713326   0.19911879
8000.00   27.65246391   0.19120444
8002.00   27.66774940   0.18748921
8004.00   27.85770416   0.18783744
8006.00   27.81480408   0.18795113
8008.00   27.74876213   0.18823235
8010.00   27.55401802   0.18832551
8012.00   27.37549400   0.18886912
8014.00   27.30660439   0.18992825
8016.00   27.29457092   0.19053291
8018.00   27.15479088   0.19058603
8020.00   27.13020325   0.19188845
8022.00   27.10237122   0.19445686
8024.00   27.01125908   0.19723916
8026.00   27.17905998   0.19847463
8028.00   27.32879639   0.19798493
8030.00   27.11840820   0.19398487
8032.00   26.84921265   0.18869321
8034.00   26.94940758   0.18575251
8036.00   27.20583534   0.18625535
8038.00   27.03104210   0.18512081
8040.00   26.84910393   0.18383609
8042.00   26.76682091   0.18331164
8044.00   26.63648796   0.18355291
8046.00   26.41963005   0.18296747
8048.00   26.23125267   0.18338598
8050.00   26.26616478   0.18468283
8052.00   26.53830719   0.18645214
8054.00   26.85012627   0.18823625
8056.00   26.82617760   0.18886864
8058.00   26.96457863   0.18995558
8060.00   27.21587181   0.19181736
8062.00   27.43551826   0.19366515
8064.00   27.52951622   0.19361670
8066.00   27.55905914   0.19267027
8068.00   27.50943565   0.19048096
8070.00   27.39838982   0.18764891
8072.00   27.28475380   0.18543829
8074.00   27.29705620   0.18596457
8076.00   27.36206627   0.18625541
8078.00   27.23890686   0.18542433
8080.00   27.07134056   0.18436159
8082.00   27.11721039   0.18461303
8084.00   27.28402138   0.18632591
8086.00   27.32610893   0.18739255
8088.00   27.23064613   0.18708909
8090.00   27.10699272   0.18643510
8092.00   27.10846901   0.18725632
8094.00   27.15303612   0.18816280
8096.00   27.12555504   0.18833913
8098.00   27.01034546   0.18863082
8100.00   26.86917114   0.18912268
8102.00   26.81284523   0.18882346
8104.00   26.65768623   0.18742995
8106.00   26.74842834   0.18792279
8108.00   26.94680786   0.18853046
8110.00   27.04242897   0.18761943
8112.00   26.91398621   0.18576247
8114.00   26.95366096   0.18582563
8116.00   26.96524048   0.18603300
8118.00   26.91718102   0.18573742
8120.00   26.83694649   0.18493180
8122.00   26.73654747   0.18413126
8124.00   26.86754799   0.18438797
8126.00   26.91582680   0.18514538
8128.00   26.73537445   0.18517983
8130.00   26.39825630   0.18390632
8132.00   26.42183495   0.18482728
8134.00   26.34037781   0.18603115
8136.00   26.31178474   0.18584980
8138.00   26.36544037   0.18510342
8140.00   26.40524292   0.18611513
8142.00   26.46278572   0.18617439
8144.00   26.74257469   0.18784745
8146.00   26.94638824   0.18975790
8148.00   26.82881165   0.19010764
8150.00   26.35746765   0.18765099
8152.00   26.08992195   0.18566227
8154.00   26.10031128   0.18558045
8156.00   26.06669617   0.18560950
8158.00   25.80940437   0.18441182
8160.00   25.60318184   0.18312649
8162.00   25.94239998   0.18572839
8164.00   26.39360237   0.18860869
8166.00   26.65083313   0.18993425
8168.00   26.54060936   0.18898690
8170.00   26.06312561   0.18568034
8172.00   25.73034668   0.18430217
8174.00   25.72871208   0.18585072
8176.00   25.86435127   0.18876915
8178.00   25.79852295   0.19061546
8180.00   25.66300964   0.19210845
8182.00   25.46919823   0.19174449
8184.00   25.42865944   0.19199802
8186.00   25.57809258   0.19337319
8188.00   25.76096535   0.19434823
8190.00   25.74005890   0.19514863
8192.00   25.40637779   0.19382751
8194.00   25.16746521   0.19264825
8196.00   25.20815086   0.19308175
8198.00   25.27837372   0.19430311
8200.00   25.11058998   0.19126463
8202.00   24.82720757   0.18660676
8204.00   24.56742287   0.18274386
8206.00   24.49802971   0.18128352
8208.00   24.83723640   0.18198489
8210.00   25.00170135   0.18235905
8212.00   25.09564018   0.18246682
8214.00   25.10281563   0.18195780
8216.00   24.99722099   0.18082714
8218.00   24.81157494   0.18013529
8220.00   24.76496315   0.18184596
8222.00   24.76002693   0.18356495
8224.00   24.80299950   0.18514051
8226.00   24.94548035   0.18775351
8228.00   25.08661842   0.19153738
8230.00   25.16863060   0.19243647
8232.00   25.24353981   0.19134741
8234.00   25.26918983   0.18909013
8236.00   25.11632347   0.18588333
8238.00   24.71686363   0.18143094
8240.00   24.80868530   0.18096252
8242.00   25.16468811   0.18295230
8244.00   25.37503624   0.18414919
8246.00   25.11040688   0.18150301
8248.00   25.10606575   0.18058963
8250.00   24.98500061   0.17981350
8252.00   24.73368835   0.17850392
8254.00   24.52838326   0.17717046
8256.00   24.73381805   0.17857938
8258.00   24.89550591   0.17981754
8260.00   24.88686371   0.17956515
8262.00   24.83753204   0.17866552
8264.00   24.92978859   0.17864431
8266.00   25.03794289   0.17924577
8268.00   25.07145119   0.17959650
8270.00   25.09697914   0.18060315
8272.00   25.08407593   0.18244642
8274.00   24.96317863   0.18486190
8276.00   24.88095284   0.18878281
8278.00   24.79366493   0.19241162
8280.00   24.76014137   0.19483583
8282.00   24.81793976   0.19697134
8284.00   24.95848846   0.20094359
8286.00   25.07331848   0.20252788
8288.00   25.08851433   0.20115785
8290.00   25.00037956   0.19947195
8292.00   24.82801056   0.19894518
8294.00   24.59366417   0.19780648
8296.00   24.23135376   0.19619013
8298.00   24.07022095   0.19497271
8300.00   24.20273590   0.19501559
8302.00   24.44551849   0.19504957
8304.00   24.18566704   0.18854062
8306.00   23.90036964   0.18273342
8308.00   23.87261772   0.18101378
8310.00   23.96934509   0.18212438
8312.00   23.93829346   0.18262173
8314.00   24.02000237   0.18217196
8316.00   24.15661049   0.18106568
8318.00   24.05110168   0.17975359
8320.00   24.22026253   0.18232821
8322.00   24.08629608   0.19143157
8324.00   24.16951752   0.17772108
8326.00   24.36699677   0.17814404
8328.00   24.46466446   0.18717563
8330.00   23.98655701   0.17788428
8332.00   24.14305878   0.17593850
8334.00   24.24024963   0.17679501
8336.00   24.50649071   0.17937450
8338.00   24.82305336   0.18702197
8340.00   24.92838478   0.19867040
8342.00   24.56554604   0.20605482
8344.00   24.28567696   0.20926042
8346.00   24.25777245   0.21034253
8348.00   24.37219810   0.20909278
8350.00   24.42113686   0.20448403
8352.00   24.26644707   0.19473404
8354.00   24.34066010   0.18992718
8356.00   24.48173332   0.18828072
8358.00   24.54500580   0.18698777
8360.00   24.44901466   0.18390878
8362.00   24.30500603   0.18195026
8364.00   24.07202911   0.18061101
8366.00   23.99306297   0.17994471
8368.00   24.12395668   0.17957361
8370.00   24.33409691   0.17886591
8372.00   24.52631569   0.17769098
8374.00   24.68024635   0.17828506
8376.00   24.70477867   0.18088593
8378.00   24.63647461   0.18448023
8380.00   24.66043091   0.18721975
8382.00   24.56978035   0.18746601
8384.00   24.58621979   0.18776910
8386.00   24.51540947   0.18635257
8388.00   24.26437187   0.18200050
8390.00   24.11394310   0.17620325
8392.00   24.24647522   0.17828195
8394.00   24.45271492   0.18768813
8396.00   24.55280113   0.19739331
8398.00   24.43015480   0.20088793
8400.00   24.07009697   0.19750708
8402.00   23.90100670   0.19551896
8404.00   23.81785011   0.19035570
8406.00   23.76287270   0.18206058
8408.00   23.74106598   0.17504668
8410.00   23.93199158   0.17907830
8412.00   23.88013458   0.18389773
8414.00   23.60187340   0.18447368
8416.00   23.27348328   0.18182255
8418.00   23.13935852   0.18134181
8420.00   23.19441223   0.17880334
8422.00   23.32171440   0.17665653
8424.00   23.47094727   0.18014717
8426.00   23.57201576   0.18936341
8428.00   23.52842903   0.19778897
8430.00   23.43574715   0.19902606
8432.00   23.42375183   0.19850999
8434.00   23.41450310   0.19470060
8436.00   23.33987427   0.18615390
8438.00   23.29111481   0.17510134
8440.00   23.20406914   0.17121939
8442.00   23.15717316   0.17053013
8444.00   23.18237877   0.17142987
8446.00   23.23990059   0.17352068
8448.00   23.12588501   0.17711948
8450.00   23.09304810   0.17976087
8452.00   23.22512627   0.18106955
8454.00   23.39405060   0.18097134
8456.00   23.39307594   0.17978776
8458.00   23.34022713   0.17819364
8460.00   23.40827370   0.18156235
8462.00   23.53507423   0.18756525
8464.00   23.68673134   0.19248228
8466.00   23.86151695   0.19309257
8468.00   23.68729210   0.19193286
8470.00   23.75465393   0.18761359
8472.00   23.84060860   0.18069930
8474.00   23.81309319   0.17407049
8476.00   23.90941429   0.17316635
8478.00   23.84160423   0.17284398
8480.00   23.88538933   0.17289269
8482.00   24.01161957   0.17307281
8484.00   24.09058189   0.17330383
8486.00   23.99185753   0.17340286
8488.00   23.88199425   0.17511767
8490.00   23.73566437   0.17703129
8492.00   23.64486504   0.17831802
8494.00   23.66190147   0.17864116
8496.00   23.51127625   0.17810600
8498.00   23.41522789   0.17800768
8500.00   23.44434166   0.17992605
8502.00   23.60217857   0.18295814
8504.00   23.83137321   0.18479867
8506.00   24.03239441   0.18551619
8508.00   24.16544533   0.18474837
8510.00   24.27178955   0.18148245
8512.00   24.35310555   0.17681845
8514.00   24.37203407   0.17410450
8516.00   24.58924866   0.17447142
8518.00   24.57647133   0.17463303
8520.00   24.53215599   0.17461164
8522.00   24.58801270   0.17471874
8524.00   24.54473877   0.17452820
8526.00   24.49241829   0.17421935
8528.00   24.52075386   0.17412831
8530.00   24.57806396   0.17419851
8532.00   24.56873131   0.17440824
8534.00   24.41148567   0.17520349
8536.00   24.38167763   0.17627084
8538.00   24.43118477   0.17687903
8540.00   24.51713371   0.17726736
8542.00   24.59120941   0.17804970
8544.00   24.60523987   0.17924447
8546.00   24.39267540   0.17944987
8548.00   24.19500542   0.17913054
8550.00   24.14850044   0.17877938
8552.00   24.23200798   0.17853458
8554.00   24.14978981   0.17652459
8556.00   24.22084618   0.17443967
8558.00   24.42042542   0.17350042
8560.00   24.65132904   0.17383923
8562.00   24.80304718   0.17436765
8564.00   24.87218666   0.17460835
8566.00   24.88760948   0.17469664
8568.00   24.97213173   0.17500977
8570.00   25.12354469   0.17556906
8572.00   25.09189415   0.17568666
8574.00   25.05814934   0.17569421
8576.00   24.97037697   0.17536080
8578.00   24.87087059   0.17486010
8580.00   24.82560158   0.17457663
8582.00   24.86956787   0.17498446
8584.00   25.02899742   0.17606838
8586.00   25.22676277   0.17718863
8588.00   25.35963440   0.17786729
8590.00   25.37615776   0.17805851
8592.00   25.46603584   0.17891853
8594.00   25.67568207   0.17986143
8596.00   25.82403374   0.18021534
8598.00   25.88631248   0.18014996
8600.00   25.96032524   0.18032070
8602.00   25.85571098   0.17916386
8604.00   25.46589470   0.17691816
8606.00   24.94567680   0.17464586
8608.00   24.44570160   0.17305146
8610.00   24.03278351   0.17205860
8612.00   23.80978966   0.17202057
8614.00   23.95546722   0.17346098
8616.00   24.27924156   0.17567070
8618.00   24.67101288   0.17821288
8620.00   25.40350342   0.18188649
8622.00   25.95626259   0.18477273
8624.00   26.09406281   0.18637145
8626.00   25.98409271   0.18707073
8628.00   25.90321541   0.18747668
8630.00   25.85301399   0.18752037
8632.00   25.86100769   0.18711449
8634.00   25.88789558   0.18647651
8636.00   25.97586250   0.18576400
8638.00   26.18338013   0.18503141
8640.00   26.42960167   0.18413098
8642.00   26.42223549   0.18300824
8644.00   26.22345924   0.18206115
8646.00   25.85152245   0.18142104
8648.00   25.25778961   0.18084730
8650.00   24.43503761   0.17950796
8652.00   23.37810326   0.17731005
8654.00   22.48600960   0.17529984
8656.00   22.04952049   0.17417286
8658.00   22.07408905   0.17372592
8660.00   22.60833168   0.17795658
8662.00   23.53771019   0.18070066
8664.00   24.64335060   0.18220817
8666.00   25.65078163   0.18379597
8668.00   26.25538826   0.18527393
8670.00   26.67389679   0.18582509
8672.00   26.96949196   0.18596268
8674.00   27.13096809   0.18567292
8676.00   27.16988564   0.18495820
8678.00   27.31121254   0.18459646
8680.00   27.44919777   0.18431342
8682.00   27.53896523   0.18393791
8684.00   27.56196022   0.18339719
8686.00   27.53083038   0.18273996
8688.00   27.49773979   0.18219568
8690.00   27.51894188   0.18192995
8692.00   27.54220009   0.18172346
8694.00   27.55741882   0.18157931
8696.00   27.60444641   0.18172352
8698.00   27.64321899   0.18174563
8700.00   27.68663216   0.18185283
8702.00   27.75475121   0.18214536
8704.00   27.80349731   0.18237166
8706.00   27.70058250   0.18184228
8708.00   27.73984337   0.18164806
8710.00   27.82229805   0.18168612
8712.00   27.77716637   0.18132259
8714.00   27.59013367   0.18038619
8716.00   27.66355705   0.18017228
8718.00   27.67548561   0.18022789
8720.00   27.75334740   0.18047728
8722.00   27.87548828   0.18081261
8724.00   27.96066284   0.18111253
8726.00   27.96112061   0.18119060
8728.00   28.02587891   0.18136066
8730.00   28.07418823   0.18144405
8732.00   28.14258385   0.18158774
8734.00   28.31605530   0.18205953
8736.00   28.40409660   0.18233995
8738.00   28.32496071   0.18219097
8740.00   28.39702797   0.18246727
8742.00   28.63485146   0.18316722
8744.00   28.69597816   0.18330584
8746.00   28.73974609   0.18335523
8748.00   28.83041573   0.18353547
8750.00   28.87018585   0.18370646
8752.00   28.84899712   0.18455423
8754.00   28.96017647   0.18800263
8756.00   28.93569374   0.19418533
8758.00   28.74053001   0.20081002
8760.00   28.63501549   0.20543623
8762.00   28.74493599   0.20768075
8764.00   28.60562134   0.21222515
8766.00   28.22254753   0.21077096
8768.00   27.90251732   0.20619202
8770.00   27.55536079   0.20191209
8772.00   26.92486382   0.20037009
8774.00   25.96841431   0.19836085
8776.00   25.11537933   0.19582541
8778.00   24.81972504   0.19442768
8780.00   25.03235054   0.19362219
8782.00   25.36992073   0.19115828
8784.00   26.19823647   0.18603502
8786.00   26.94394493   0.18400134
8788.00   27.57558632   0.18538634
8790.00   28.05721474   0.18812679
8792.00   28.28177643   0.18900849
8794.00   28.41833687   0.18904589
8796.00   28.48789787   0.18713480
8798.00   28.48592377   0.18417425
8800.00   28.49177742   0.18195166
8802.00   28.74343872   0.18267496
8804.00   28.93442345   0.18477856
8806.00   28.98021889   0.18474774
8808.00   28.97808075   0.18412967
8810.00   29.07469749   0.18504374
8812.00   29.31702614   0.18519078
8814.00   29.68229103   0.18692786
8816.00   29.92223930   0.18792903
8818.00   29.91935730   0.18893714
8820.00   29.71483612   0.19305061
8822.00   29.58895302   0.20605652
8824.00   29.61622620   0.21686073
8826.00   29.64667511   0.22286893
8828.00   29.58185005   0.22469008
8830.00   29.43857765   0.22463877
8832.00   29.58992004   0.21972711
8834.00   29.86869812   0.21285848
8836.00   30.01183891   0.20682901
8838.00   29.98257446   0.20335709
8840.00   30.04636383   0.20214140
8842.00   30.07220650   0.19729333
8844.00   30.01312447   0.19261168
8846.00   30.05340004   0.19210197
8848.00   30.29501915   0.19595973
8850.00   30.56012726   0.19735973
8852.00   30.81463051   0.19856860
8854.00   31.04442787   0.19902360
8856.00   31.04940224   0.19720180
8858.00   30.74543953   0.19311184
8860.00   30.59712219   0.19255631
8862.00   30.47667503   0.19549973
8864.00   30.20656395   0.19807605
8866.00   29.95440865   0.19939314
8868.00   30.00821877   0.20036010
8870.00   30.15666389   0.20042570
8872.00   30.19577980   0.19772017
8874.00   30.23545647   0.19312803
8876.00   30.29996300   0.18971133
8878.00   30.32749939   0.19234852
8880.00   30.58450127   0.20824648
8882.00   30.61495399   0.20961483
8884.00   30.52117729   0.21400169
8886.00   30.39737511   0.21180546
8888.00   30.18065453   0.21281904
8890.00   30.36094093   0.21210718
8892.00   30.24425316   0.20194429
8894.00   30.16574097   0.19095193
8896.00   30.34899902   0.18896061
8898.00   30.08724403   0.19307128
8900.00   30.24447823   0.19759415
8902.00   30.45487976   0.20930330
8904.00   30.55599022   0.20297126
8906.00   30.48254585   0.20171751
8908.00   30.18758202   0.19730604
8910.00   29.91511345   0.19017501
8912.00   29.81024361   0.18925469
8914.00   29.89810944   0.19733723
8916.00   30.05806160   0.21000469
8918.00   29.85278320   0.21695961
8920.00   29.82426453   0.22032003
8922.00   29.57686043   0.21824975
8924.00   29.16486549   0.21032377
8926.00   29.13309288   0.19829096
8928.00   29.27889442   0.18991055
8930.00   29.43453407   0.18552226
8932.00   29.61734200   0.18475068
8934.00   29.83539009   0.18619637
8936.00   30.02535248   0.18791179
8938.00   29.97769737   0.19186796
8940.00   29.60188293   0.19468862
8942.00   29.19157982   0.19523267
8944.00   29.08310127   0.19442910
8946.00   29.43404579   0.19655590
8948.00   29.45232391   0.19378686
8950.00   29.31093597   0.19019413
8952.00   29.32942009   0.19226110
8954.00   29.70771217   0.20314336
8956.00   29.95649719   0.21333663
8958.00   29.85234070   0.21517222
8960.00   29.71310616   0.21396548
8962.00   29.68396568   0.21029812
8964.00   29.71711540   0.20163089
8966.00   29.62534904   0.19159494
8968.00   29.60898399   0.18730186
8970.00   29.72896385   0.18748987
8972.00   29.84535789   0.18900053
8974.00   29.66014290   0.18888785
8976.00   29.29805183   0.18701200
8978.00   28.82382202   0.18536602
8980.00   28.32497597   0.18402183
8982.00   27.93286133   0.18400632
8984.00   27.82687378   0.18843025
8986.00   27.82516479   0.19376536
8988.00   28.02503014   0.19752343
8990.00   28.35603905   0.20012338
8992.00   28.65918159   0.20143087
8994.00   28.69976997   0.19636308
8996.00   28.74812126   0.19604619
8998.00   28.93568420   0.20168324
9000.00   29.12637901   0.20818043
9002.00   29.22169685   0.21025772
9004.00   29.95161629   0.21417910
9006.00   30.61490440   0.21417756
9008.00   30.67004967   0.20714915
9010.00   30.18645477   0.19677149
9012.00   29.69857025   0.19171067
9014.00   29.32045746   0.18939392
9016.00   29.08321381   0.18882382
9018.00   28.91259003   0.18832187
9020.00   28.77378082   0.18724485
9022.00   28.70432091   0.18637355
9024.00   28.75032997   0.18713839
9026.00   28.67437935   0.18645252
9028.00   28.46323586   0.18461829
9030.00   28.21940041   0.18287967
9032.00   28.12628174   0.18241046
9034.00   28.09390831   0.18328540
9036.00   28.16523170   0.18469638
9038.00   28.13951302   0.18535443
9040.00   27.93837929   0.18489669
9042.00   28.06871605   0.18570393
9044.00   28.36540794   0.18846057
9046.00   28.13475800   0.18902563
9048.00   27.75050163   0.18804014
9050.00   27.97505188   0.18872146
9052.00   28.35588074   0.19299428
9054.00   28.37660980   0.19083758
9056.00   28.23926353   0.18617167
9058.00   27.97614288   0.18176632
9060.00   27.48233986   0.17831786
9062.00   27.25032806   0.17823122
9064.00   27.32361794   0.17876323
9066.00   27.45341492   0.18008351
9068.00   27.48073578   0.18202378
9070.00   27.45887566   0.18349414
9072.00   27.63196754   0.18284971
9074.00   27.78627014   0.18267952
9076.00   27.83547401   0.18239607
9078.00   27.86315155   0.18206556
9080.00   28.22451210   0.18483502
9082.00   28.38385963   0.18663263
9084.00   28.27925110   0.18600732
9086.00   28.09577179   0.18510421
9088.00   28.00653648   0.18609047
9090.00   27.76794434   0.18610162
9092.00   27.38957024   0.18317218
9094.00   27.22315979   0.18172707
9096.00   27.35158730   0.18333323
9098.00   27.62688255   0.18660019
9100.00   27.77638245   0.18737489
9102.00   27.91826439   0.18830888
9104.00   27.94926453   0.18887110
9106.00   27.85159111   0.18789800
9108.00   27.71226692   0.18435366
9110.00   27.67416191   0.18161093
9112.00   27.48384094   0.17940539
9114.00   27.35635948   0.17862654
9116.00   27.42346764   0.17954208
9118.00   27.57021523   0.18133199
9120.00   27.38701820   0.18021739
9122.00   27.33169365   0.17960905
9124.00   27.25401878   0.17936075
9126.00   26.99284172   0.17873128
9128.00   26.73194122   0.17781204
9130.00   26.81471443   0.17988573
9132.00   26.75278282   0.18125808
9134.00   26.60347939   0.18161626
9136.00   26.56524086   0.18157345
9138.00   26.39545441   0.17921823
9140.00   26.37413597   0.17740531
9142.00   26.37122917   0.17619248
9144.00   26.43798065   0.17571373
9146.00   26.69157219   0.17623051
9148.00   26.85244942   0.17856228
9150.00   26.92123413   0.18107046
9152.00   27.00486946   0.18315132
9154.00   27.20993996   0.18523102
9156.00   27.56780815   0.18817444
9158.00   27.46417427   0.18673341
9160.00   27.24302101   0.18319356
9162.00   27.13063622   0.18054806
9164.00   27.21622658   0.18033893
9166.00   27.40293694   0.18126337
9168.00   27.43944359   0.18073128
9170.00   27.47911835   0.18099739
9172.00   27.59185028   0.18273310
9174.00   27.74762154   0.18502206
9176.00   27.77192497   0.18483180
9178.00   27.45960045   0.18240802
9180.00   27.13664246   0.17954449
9182.00   27.11035728   0.17863701
9184.00   27.47459984   0.18077733
9186.00   27.68631172   0.18215175
9188.00   27.66287041   0.18136959
9190.00   27.54225731   0.18024640
9192.00   27.49690247   0.18007584
9194.00   27.64183044   0.18117350
9196.00   27.74601555   0.18222408
9198.00   27.71507263   0.18207066
9200.00   27.62651825   0.18107404
9202.00   27.47196007   0.17981946
9204.00   27.15690804   0.17891251
9206.00   27.31501198   0.18094940
9208.00   27.46434784   0.18318157
9210.00   27.41272163   0.18369401
9212.00   27.25792503   0.18306421
9214.00   27.43622398   0.18543272
9216.00   28.07581520   0.18868347
9218.00   29.02825928   0.19421317
9220.00   29.81019592   0.19944073
9222.00   29.98722839   0.20105894
9224.00   29.54429054   0.19665568
9226.00   28.81133842   0.19183570
9228.00   28.13319969   0.18754625
9230.00   27.70085144   0.18441664
9232.00   27.52541542   0.18256374
9234.00   27.39833641   0.18183340
9236.00   27.37847137   0.18233138
9238.00   27.17886543   0.18142228
9240.00   26.86382866   0.17907917
9242.00   26.79637718   0.17779641
9244.00   27.29195213   0.18096542
9246.00   27.79254913   0.18432088
9248.00   28.02959633   0.18582529
9250.00   27.91516113   0.18467490
9252.00   27.55294228   0.18137668
9254.00   27.29146004   0.18013035
9256.00   27.22709846   0.18028092
9258.00   27.32666016   0.18104732
9260.00   27.46661186   0.18189497
9262.00   27.47026253   0.18315192
9264.00   27.26928711   0.18181306
9266.00   26.84563446   0.17982574
9268.00   26.36907387   0.17728908
9270.00   26.08835030   0.17470540
9272.00   26.27921486   0.17587847
9274.00   26.32402611   0.17698644
9276.00   26.57006836   0.17914061
9278.00   26.83964539   0.18176179
9280.00   26.76436424   0.18323807
9282.00   26.54961395   0.18110375
9284.00   26.57595825   0.18194290
9286.00   26.62007332   0.18329673
9288.00   26.48552513   0.18337429
9290.00   26.09662056   0.18194163
9292.00   25.56805229   0.17992355
9294.00   25.49242210   0.17967737
9296.00   25.82754707   0.18296899
9298.00   26.30048561   0.18879168
9300.00   26.53793907   0.19344795
9302.00   26.21525383   0.20047756
9304.00   25.88137627   0.20839787
9306.00   25.87546349   0.21999997
9308.00   26.17669487   0.23482621
9310.00   26.22221375   0.24663137
9312.00   25.91059875   0.24727418
9314.00   26.06498146   0.24815388
9316.00   26.42432594   0.25042054
9318.00   26.36246681   0.25030836
9320.00   25.59031677   0.24173050
9322.00   25.59126854   0.24114932
9324.00   25.84278107   0.24333136
9326.00   25.83141518   0.24080379
9328.00   25.31895447   0.22801369
9330.00   25.09432983   0.21296842
9332.00   25.34671021   0.20776899
9334.00   25.68919373   0.21260519
9336.00   25.72447395   0.21971200
9338.00   25.26007080   0.21917813
9340.00   25.14106178   0.22149421
9342.00   26.03308105   0.23168351
9344.00   26.70044899   0.23420197
9346.00   26.16891479   0.22059326
9348.00   24.49155426   0.19647111
9350.00   23.61869812   0.18641597
9352.00   23.85621071   0.18994899
9354.00   24.87220764   0.20254944
9356.00   25.90368080   0.21483207
9358.00   25.93566704   0.21325791
9360.00   25.29749870   0.20291828
9362.00   24.69288635   0.19430248
9364.00   24.51602936   0.19224846
9366.00   24.80389214   0.19772319
9368.00   25.13214684   0.21249962
9370.00   25.23841858   0.23618810
9372.00   24.94215584   0.25628790
9374.00   24.52983665   0.26744232
9376.00   24.53594017   0.27030897
9378.00   25.13018799   0.27707240
9380.00   25.36895561   0.27178559
9382.00   25.32518959   0.25096348
9384.00   25.15461159   0.22205402
9386.00   24.98022270   0.20612328
9388.00   25.19389915   0.19988744
9390.00   25.44994545   0.19570988
9392.00   25.63660240   0.19166054
9394.00   25.69793129   0.18851896
9396.00   25.60213470   0.18872853
9398.00   25.39473915   0.19368951
9400.00   25.46477699   0.19893539
9402.00   25.60264015   0.20150264
9404.00   25.54757500   0.20039253
9406.00   25.43263245   0.19741465
9408.00   25.32907867   0.19525212
9410.00   25.28354073   0.19257905
9412.00   25.18119812   0.19107203
9414.00   24.92227936   0.19315393
9416.00   24.76766014   0.19846110
9418.00   24.79123688   0.20327730
9420.00   24.80038643   0.20695345
9422.00   24.80959511   0.20971866
9424.00   25.02588844   0.21242313
9426.00   25.88083076   0.21696858
9428.00   26.12950897   0.21520583
9430.00   25.58439636   0.20693885
9432.00   24.68116760   0.19887364
9434.00   24.29624176   0.20388317
9436.00   24.53001404   0.22603579
9438.00   25.18683815   0.25191316
9440.00   25.71885109   0.26994845
9442.00   25.73999214   0.27266544
9444.00   25.30687523   0.25532630
9446.00   24.56548500   0.22058946
9448.00   24.08713531   0.19500935
9450.00   24.05841064   0.18800914
9452.00   24.40828896   0.19498558
9454.00   24.89185333   0.21132588
9456.00   25.37710571   0.22631045
9458.00   25.42123413   0.23465532
9460.00   25.16336060   0.23417516
9462.00   24.94928741   0.22514819
9464.00   24.46153259   0.21005650
9466.00   24.08272552   0.19669895
9468.00   24.18034363   0.19218503
9470.00   24.57007790   0.20061404
9472.00   24.67121315   0.21947323
9474.00   24.36877251   0.23520987
9476.00   24.27847862   0.24371696
9478.00   24.52612877   0.25116932
9480.00   24.84369469   0.25529203
9482.00   24.65216637   0.24343669
9484.00   24.23087120   0.21540056
9486.00   23.81671906   0.19281618
9488.00   23.51871490   0.18227816
9490.00   23.47449684   0.18224597
9492.00   23.94400215   0.18807189
9494.00   24.65653038   0.19910999
9496.00   25.15495491   0.21237428
9498.00   25.27292442   0.22483043
9500.00   25.02864838   0.23254438
9502.00   24.51323700   0.22798179
9504.00   23.78889465   0.21509254
9506.00   23.36351967   0.20243104
9508.00   23.29734039   0.19297357
9510.00   23.38766670   0.18598123
9512.00   23.69652367   0.18673141
9514.00   24.05110931   0.20224512
9516.00   24.31668663   0.22272754
9518.00   24.46355247   0.23916514
9520.00   24.57593346   0.24632592
9522.00   24.89859962   0.24846520
9524.00   25.05377960   0.23973070
9526.00   24.78317833   0.22079523
9528.00   24.32463837   0.20000152
9530.00   24.46550751   0.19597393
9532.00   24.86995697   0.19892240
9534.00   25.40478706   0.20364396
9536.00   25.94880867   0.20900629
9538.00   26.27877617   0.21334408
9540.00   25.93759155   0.21098034
9542.00   25.58826256   0.20892479
9544.00   25.32148743   0.20693147
9546.00   25.03053474   0.20572962
9548.00   24.56606293   0.20558107
9550.00   23.95496559   0.20443256
9552.00   23.75533104   0.20644681
9554.00   23.94685936   0.21144897
9556.00   24.37332153   0.21522933
9558.00   24.69211388   0.21282779
9560.00   23.87574959   0.20493346
9562.00   23.62312508   0.20716208
9564.00   23.90330696   0.22088043
9566.00   24.27799034   0.23502195
9568.00   24.17477989   0.23409754
9570.00   23.70812035   0.22367878
9572.00   23.34941673   0.21081822
9574.00   23.24055290   0.19806759
9576.00   23.38491631   0.18890053
9578.00   23.69249535   0.18895924
9580.00   23.82471466   0.19080532
9582.00   23.66803932   0.18919611
9584.00   23.53115273   0.18724652
9586.00   23.69666100   0.18893194
9588.00   24.06040001   0.19316693
9590.00   24.67382240   0.19896269
9592.00   24.75446510   0.20027661
9594.00   24.44082451   0.19729449
9596.00   24.22717857   0.19322716
9598.00   24.17284966   0.19060308
9600.00   23.90210152   0.18902987
9602.00   23.81121826   0.19051242
9604.00   24.00229836   0.19576246
9606.00   24.27977562   0.20291758
9608.00   24.16654205   0.20192654
9610.00   24.12683105   0.19983341
9612.00   24.26338005   0.19934161
9614.00   24.48367882   0.20085876
9616.00   24.54725075   0.20280306
9618.00   24.32012367   0.20732667
9620.00   24.06541443   0.20918424
9622.00   24.05288506   0.21003596
9624.00   24.30297279   0.21063018
9626.00   24.46934700   0.20822559
9628.00   24.28650665   0.19915134
9630.00   24.01460457   0.19195537
9632.00   23.88745689   0.18927990
9634.00   24.00029755   0.19027029
9636.00   24.16808891   0.19235773
9638.00   24.13866615   0.19366550
9640.00   24.15463829   0.19395538
9642.00   24.29633141   0.19437008
9644.00   24.49271202   0.19587044
9646.00   24.44303894   0.19581030
9648.00   24.45835876   0.19545077
9650.00   24.56871796   0.19615346
9652.00   24.57523155   0.19652085
9654.00   24.24250984   0.19412811
9656.00   24.17578888   0.19423093
9658.00   24.22723198   0.19654755
9660.00   24.20997047   0.19866507
9662.00   24.13150597   0.20072812
9664.00   24.20874977   0.20558427
9666.00   24.14141846   0.20790493
9668.00   23.94243431   0.20733632
9670.00   23.57916069   0.20485140
9672.00   23.10861397   0.20153558
9674.00   22.70327759   0.19743960
9676.00   23.04342651   0.20142634
9678.00   23.53287506   0.20927846
9680.00   23.69524574   0.21412975
9682.00   23.41836548   0.21224909
9684.00   23.36250305   0.20910682
9686.00   23.69937325   0.20890866
9688.00   23.95184517   0.20663564
9690.00   24.04261780   0.20326066
9692.00   24.08136559   0.20292640
9694.00   23.84295464   0.20742248
9696.00   23.74213219   0.21199183
9698.00   23.78590965   0.21548657
9700.00   23.82835579   0.21722884
9702.00   23.68122292   0.21663016
9704.00   23.59925652   0.21050890
9706.00   23.61667824   0.20390458
9708.00   23.66303444   0.20118220
9710.00   23.74107552   0.20348750
9712.00   23.95802498   0.20780249
9714.00   24.19367409   0.21528208
9716.00   24.25473213   0.22157843
9718.00   24.05982399   0.22409596
9720.00   23.74564552   0.22293878
9722.00   23.75296974   0.22211516
9724.00   23.93291473   0.22098875
9726.00   23.90284157   0.21335687
9728.00   23.71633339   0.20367688
9730.00   23.62776184   0.20012800
9732.00   23.90469551   0.20562923
9734.00   24.07115936   0.21105945
9736.00   24.23622131   0.21565630
9738.00   24.30229378   0.21759976
9740.00   24.17019081   0.21595027
9742.00   24.32877541   0.21600004
9744.00   24.66452980   0.21550775
9746.00   24.58689880   0.21170731
9748.00   24.15744972   0.20823483
9750.00   24.00838661   0.21392488
9752.00   23.97171211   0.23242415
9754.00   24.44715691   0.24422991
9756.00   25.58531189   0.24641675
9758.00   26.61501503   0.23842555
9760.00   25.80917358   0.21953525
9762.00   24.40834236   0.20403551
9764.00   23.67226219   0.19851069
9766.00   23.51371193   0.19873203
9768.00   23.50539589   0.19842768
9770.00   23.50983620   0.19700384
9772.00   23.43878174   0.19694901
9774.00   23.43642616   0.19824524
9776.00   23.60744476   0.20064718
9778.00   23.91899300   0.20368023
9780.00   24.00666618   0.20675044
9782.00   23.78124428   0.20989060
9784.00   23.51707458   0.21724240
9786.00   23.32489777   0.23079883
9788.00   23.18757057   0.24873571
9790.00   23.10321045   0.26143745
9792.00   23.51121521   0.26812556
9794.00   23.86121368   0.27038491
9796.00   23.92267799   0.26673880
9798.00   23.90711403   0.25350294
9800.00   23.90133667   0.24071072
9802.00   24.01018333   0.23565583
9804.00   24.13401604   0.23277724
9806.00   24.08123207   0.22706921
9808.00   23.61974144   0.21973504
9810.00   23.67859077   0.21809889
9812.00   24.01093102   0.22111039
9814.00   24.26200294   0.22440676
9816.00   24.24415779   0.22415979
9818.00   24.26111794   0.21966618
9820.00   24.21099091   0.21809958
9822.00   24.04004097   0.21617717
9824.00   23.89526176   0.21422660
9826.00   23.91805267   0.21372782
9828.00   23.88195801   0.21415703
9830.00   23.85395241   0.21446939
9832.00   23.86963844   0.21386284
9834.00   23.90957451   0.21263127
9836.00   23.93225098   0.21195935
9838.00   24.03594017   0.21352379
9840.00   23.96995735   0.21395154
9842.00   23.91553307   0.21637763
9844.00   23.98352623   0.22238989
9846.00   24.12686157   0.23054738
9848.00   24.08009338   0.23362692
9850.00   23.84592628   0.23223007
9852.00   23.62373352   0.22815059
9854.00   23.55774879   0.22324528
9856.00   23.60809326   0.21842350
9858.00   24.03398323   0.21841402
9860.00   24.13134766   0.21870100
9862.00   23.83069038   0.21807212
9864.00   23.38487053   0.21890934
9866.00   23.22137260   0.22861727
9868.00   23.02300072   0.24663389
9870.00   23.26391411   0.26121283
9872.00   23.55824852   0.26876965
9874.00   23.33887291   0.26942441
9876.00   23.11750603   0.26209977
9878.00   23.03046417   0.24563502
9880.00   23.21934509   0.23126149
9882.00   23.58632469   0.22527546
9884.00   23.83429146   0.22577171
9886.00   23.52919960   0.22428763
9888.00   23.27995110   0.22621381
9890.00   23.48740196   0.23466195
9892.00   24.01512337   0.24640965
9894.00   24.18634033   0.25319597
9896.00   23.82508659   0.25172842
9898.00   23.47390938   0.24824749
9900.00   23.44986725   0.24282901
9902.00   23.66013145   0.23558365
9904.00   23.43846130   0.22905295
9906.00   23.22858429   0.22758631
9908.00   23.12862396   0.23706250
9910.00   22.96902275   0.25342497
9912.00   22.63875771   0.26902434
9914.00   22.47805595   0.27730384
9916.00   22.49869347   0.27914965
9918.00   22.59742737   0.27474704
9920.00   22.72893715   0.26345757
9922.00   22.90469170   0.24625255
9924.00   23.22846031   0.23435825
9926.00   23.41207886   0.23069744
9928.00   23.41918945   0.23026621
9930.00   23.38272095   0.23049788
9932.00   23.50188637   0.23223157
9934.00   23.50576973   0.23603578
9936.00   23.49744225   0.24578278
9938.00   23.57243919   0.26161334
9940.00   23.65285683   0.28095120
9942.00   23.47726440   0.29979226
9944.00   23.47746849   0.31476915
9946.00   23.51067162   0.32040778
9948.00   23.55682373   0.31769732
9950.00   23.59856606   0.31044844
9952.00   23.58578682   0.30428723
9954.00   23.42070961   0.30049416
9956.00   23.43707275   0.30362520
9958.00   23.44701576   0.31072536
9960.00   23.24004555   0.31533459
9962.00   23.20333290   0.31061181
9964.00   23.13096809   0.29922023
9966.00   23.18081665   0.28771976
9968.00   23.34670830   0.27801266
9970.00   23.51282692   0.26911774
9972.00   23.57231140   0.26602033
9974.00   23.65168571   0.26589647
9976.00   23.66815758   0.26527107
9978.00   23.69215393   0.26249516
9980.00   23.87794685   0.25815797
9982.00   23.66206932   0.25428176
9984.00   23.49101830   0.25181401
9986.00   23.49290276   0.25065374
9988.00   23.65612984   0.25066695
9990.00   23.85413170   0.25201738
9992.00   23.96669006   0.25454935
9994.00   23.79765511   0.25787854
9996.00   23.69740295   0.26260638
9998.00   23.82719612   0.26814964
10000.00   23.59472656   0.27117935
10002.00   23.50901031   0.27275062
10004.00   23.78955269   0.27795574
10006.00   24.02762032   0.29109880
10008.00   23.80181122   0.31274995
10010.00   23.64511681   0.33818236
10012.00   23.27994537   0.35201836
10014.00   23.12508202   0.35658407
10016.00   23.34042358   0.35251319
10018.00   23.74326897   0.33966592
10020.00   23.39372253   0.31794059
10022.00   23.52427483   0.30724359
10024.00   23.63021278   0.30505833
10026.00   23.52752686   0.30538753
10028.00   23.52945709   0.30317238
10030.00   23.81734276   0.29835659
10032.00   23.64835548   0.28855690
10034.00   23.54343414   0.28041595
10036.00   23.76383400   0.27881914
10038.00   23.80895042   0.28175613
10040.00   23.78719521   0.28639054
10042.00   23.80937958   0.28991795
10044.00   23.84295082   0.29151592
10046.00   23.84269714   0.29119173
10048.00   23.84186554   0.28889856
10050.00   23.97598839   0.28615060
10052.00   24.01437378   0.28563893
10054.00   23.94270325   0.29000643
10056.00   23.84976006   0.29949734
10058.00   23.76016235   0.30854496
10060.00   23.82242393   0.31486872
10062.00   23.85290718   0.31874382
10064.00   23.83420563   0.32016209
10066.00   23.87840080   0.31911221
10068.00   24.04000092   0.31688979
10070.00   24.07349968   0.31545043
10072.00   24.11433220   0.31507957
10074.00   24.18275642   0.31725183
10076.00   24.14657402   0.32462347
10078.00   24.27891350   0.34077117
10080.00   24.41008186   0.35639128
10082.00   24.31868553   0.36549231
10084.00   24.05001259   0.36611548
10086.00   24.07369995   0.36114791
10088.00   24.13784981   0.34718958
10090.00   24.22349548   0.33031324
10092.00   24.33626366   0.31861305
10094.00   24.45734596   0.31716546
10096.00   24.46444702   0.32057098
10098.00   24.51350212   0.32966104
10100.00   24.53275108   0.34070191
10102.00   24.57728004   0.34955630
10104.00   24.69527626   0.35342887
10106.00   24.64561462   0.35374889
10108.00   24.50257301   0.34849492
10110.00   24.49813843   0.34011999
10112.00   24.59626770   0.33286515
10114.00   24.56732941   0.33173975
10116.00   24.39726830   0.33947897
10118.00   24.69570351   0.36103258
10120.00   24.93279266   0.38794741
10122.00   24.90908813   0.41058302
10124.00   24.98636436   0.42153898
10126.00   24.66279602   0.42208132
10128.00   24.20671844   0.41176566
10130.00   24.14520836   0.39242053
10132.00   24.52041626   0.37017968
10134.00   24.43777466   0.35776296
10136.00   24.32316780   0.35440052
10138.00   24.35624695   0.35503635
10140.00   24.63039589   0.35877416
10142.00   24.99002647   0.36523464
10144.00   24.73357201   0.37022424
10146.00   24.73169899   0.37915763
10148.00   24.75633812   0.39088830
10150.00   24.66311836   0.40249550
10152.00   24.47113037   0.41116330
10154.00   24.70335388   0.41788507
10156.00   24.83514404   0.42092410
10158.00   24.85216331   0.41844761
10160.00   24.74614143   0.41234526
10162.00   24.54003334   0.40835431
10164.00   24.73628998   0.41612697
10166.00   24.63371849   0.43640578
10168.00   24.16280556   0.46249959
10170.00   23.73286629   0.48536381
10172.00   24.10958672   0.49648544
10174.00   23.95358086   0.49691820
10176.00   24.08879662   0.48730496
10178.00   24.08392334   0.46606246
10180.00   23.70305443   0.44018176
10182.00   23.69564819   0.43551493
10184.00   23.70212555   0.44834271
10186.00   23.87288666   0.46643898
10188.00   23.91106224   0.47928381
10190.00   23.63260460   0.48219988
10192.00   23.76471138   0.48215243
10194.00   23.41143799   0.47224689
10196.00   23.02111816   0.45732546
10198.00   23.02925682   0.44805777
10200.00   23.59264183   0.45444819
10202.00   23.73586845   0.46653619
10204.00   24.32548332   0.49021888
10206.00   24.36443138   0.51709706
10208.00   23.87290764   0.53862762
10210.00   23.86539650   0.54871452
10212.00   24.13872528   0.54820830
10214.00   24.32687378   0.53643990
10216.00   24.11731529   0.51197535
10218.00   23.77365685   0.48403135
10220.00   24.23837280   0.47733530
10222.00   24.66473389   0.49136087
10224.00   24.51342201   0.50704294
10226.00   24.18707848   0.52064991
10228.00   24.17201996   0.53084618
10230.00   24.45832634   0.53219700
10232.00   24.70252991   0.52049071
10234.00   24.65780449   0.50422740
10236.00   24.47418022   0.48770484
10238.00   24.39188576   0.47320643
10240.00   24.25726891   0.46347484
10242.00   24.17987633   0.46051386
10244.00   24.02722168   0.45987597
10246.00   23.86936188   0.46007571
10248.00   23.90517616   0.46210030
10250.00   24.29270363   0.46675220
10252.00   24.42086220   0.47078660
10254.00   24.29504395   0.47373390
10256.00   24.17666435   0.47678053
10258.00   24.41156769   0.48187411
10260.00   24.28218651   0.48432574
10262.00   24.16742897   0.48867831
10264.00   24.21225739   0.49671891
10266.00   24.27939796   0.50701004
10268.00   23.89975166   0.51485974
10270.00   23.88280678   0.52433348
10272.00   23.85441017   0.53095394
10274.00   23.78289795   0.53479570
10276.00   23.74249840   0.54119235
10278.00   23.88765907   0.56012416
10280.00   23.15851784   0.61324245
10282.00   22.62079430   0.69365042
10284.00   22.49759865   0.76974136
10286.00   22.46723366   0.81492138
10288.00   21.74154091   0.82765502
10290.00   22.51444054   0.82483214
10292.00   23.36483192   0.79397410
10294.00   23.69413757   0.74382734
10296.00   23.73618507   0.70176274
10298.00   23.81775856   0.68706053
10300.00   23.57156944   0.66632479
10302.00   23.43523979   0.64178699
10304.00   23.54529381   0.62298447
10306.00   23.60027885   0.62025571
10308.00   23.49899101   0.62403613
10310.00   23.63469696   0.62821811
10312.00   23.77707863   0.62875766
10314.00   23.80512428   0.62457198
10316.00   24.01112366   0.61808783
10318.00   24.16708183   0.61374044
10320.00   24.23772240   0.61590165
10322.00   24.23819733   0.62265867
10324.00   24.21772575   0.63066632
10326.00   24.28418732   0.64001966
10328.00   23.72768593   0.64173037
10330.00   24.03372765   0.65134549
10332.00   24.65616798   0.66239071
10334.00   24.39092827   0.66381907
10336.00   23.98566628   0.67215568
10338.00   24.34416771   0.68860435
10340.00   24.50464821   0.71225494
10342.00   24.49227905   0.74292183
10344.00   25.92441177   0.77831608
10346.00   24.41406059   0.79729605
10348.00   24.99955940   0.81928211
10350.00   25.56975746   0.82964021
10352.00   25.37397957   0.82077664
10354.00   24.81888390   0.79861158
10356.00   24.82863045   0.78335267
10358.00   24.85409355   0.77500612
10360.00   25.05403137   0.77386063
10362.00   25.50178719   0.78160626
10364.00   25.87733459   0.80167133
10366.00   25.48946381   0.85440463
10368.00   25.24114037   0.93569678
10370.00   24.21337509   1.01369715
10372.00   25.18287659   1.06153309
10374.00   25.12782860   1.07610428
10376.00   24.71995354   1.05908144
10378.00   24.54372597   0.99912310
10380.00   24.83090782   0.92082947
10382.00   25.40023804   0.87003738
10384.00   25.40304375   0.85146219
10386.00   24.76593781   0.83703113
10388.00   24.70532227   0.84433627
10390.00   25.06402397   0.87414265
10392.00   24.62626839   0.91027933
10394.00   24.49387169   0.94859987
10396.00   24.58092690   0.97157127
10398.00   24.35447121   0.97353983
10400.00   23.95184898   0.95683295
10402.00   24.39054298   0.93135303
10404.00   25.05376625   0.90286046
10406.00   24.27870750   0.87858278
10408.00   23.52524757   0.87411386
10410.00   23.93528175   0.90420991
10412.00   24.25243378   0.97451258
10414.00   24.52272224   1.07827151
10416.00   24.40787506   1.15387809
10418.00   23.70901299   1.18972099
10420.00   24.23043442   1.19317949
10422.00   23.60809326   1.17491615
10424.00   24.49228859   1.08818936
10426.00   23.66572952   1.00187850
10428.00   24.40265083   0.93670917
10430.00   22.88370514   0.90968239
10432.00   22.99266624   0.90784109
10434.00   22.81508827   0.91954309
10436.00   23.28412819   0.91423583
10438.00   23.64291382   0.89967608
10440.00   23.35530281   0.90389574
10442.00   22.82021332   0.90556127
10444.00   22.71410561   0.93472010
10446.00   24.21460915   0.98441088
10448.00   24.26301384   1.03369176
10450.00   24.66699409   1.05774117
10452.00   23.58718681   1.06316674
10454.00   23.25463295   1.05787706
10456.00   23.31794739   1.04132271
10458.00   23.20773506   1.00069749
10460.00   23.67053223   1.01040375
10462.00   24.02581024   1.05757940
10464.00   24.49442482   1.14153838
10466.00   24.66169739   1.22637403
10468.00   24.08859825   1.27764654
10470.00   22.97190094   1.28798020
10472.00   23.51410866   1.28365123
10474.00   23.87371063   1.23044145
10476.00   23.40702057   1.14406633
10478.00   22.70704651   1.08189428
10480.00   23.61680794   1.08323824
10482.00   24.22386932   1.08957338
10484.00   24.25084686   1.09325683
10486.00   23.09041977   1.08041978
10488.00   24.53651428   1.10829735
10490.00   25.37466621   1.12453902
10492.00   25.63399315   1.13555300
10494.00   25.50949097   1.14039958
10496.00   25.24007988   1.14081907
10498.00   24.69419098   1.13879836
10500.00   25.89425468   1.16822493
10502.00   26.26516724   1.19668353
10504.00   25.47410583   1.22034001
10506.00   24.36172485   1.24486351
10508.00   24.63285828   1.27866173
10510.00   23.98332405   1.29234183
10512.00   25.26544189   1.29011667
10514.00   25.03356934   1.27189815
10516.00   24.21308708   1.24674201
10518.00   24.39163208   1.26179910
10520.00   24.74457550   1.30940568
10522.00   23.85377121   1.35363388
10524.00   23.45455170   1.35874093
10526.00   24.57282448   1.37434304
10528.00   24.57633781   1.35525799
10530.00   23.95234680   1.30100536
10532.00   23.32958794   1.23650467
10534.00   23.15782166   1.18965542
10536.00   23.36762428   1.17629302
10538.00   22.71933556   1.15881073
10540.00   22.84493065   1.15730464
10542.00   23.80528831   1.16952038
10544.00   24.56334496   1.17804909
10546.00   22.99553871   1.15029204
10548.00   22.27050591   1.14309764
10550.00   22.89606667   1.15438926
10552.00   23.49828911   1.16366518
10554.00   22.77862549   1.15393031
10556.00   21.47395897   1.13375962
10558.00   21.99498558   1.14219511
10560.00   22.37705994   1.14454114
10562.00   22.10504723   1.13287461
10564.00   21.55333900   1.11818540
10566.00   21.09403038   1.12417686
10568.00   20.55132103   1.13690531
10570.00   20.77079010   1.15427005
10572.00   20.28265762   1.16868341
10574.00   20.51852036   1.17102289
10576.00   21.80143166   1.16730642
10578.00   21.67938042   1.15809107
10580.00   21.63403320   1.16593516
10582.00   21.65524101   1.19186771
10584.00   21.28487396   1.20995688
10586.00   21.41059685   1.21360183
10588.00   20.42281914   1.19975483
10590.00   19.68465614   1.18164766
10592.00   20.22114754   1.17094827
10594.00   22.02634621   1.16756284
10596.00   20.88286400   1.16430807
10598.00   21.28628731   1.17596102
10600.00   20.94539070   1.15731943
10602.00   21.96310043   1.17896175
10604.00   23.45822906   1.20021570
10606.00   23.29792404   1.22855389
10608.00   21.96686554   1.23004103
10610.00   21.97933006   1.22660697
10612.00   21.45830536   1.23207748
10614.00   21.13866615   1.26025105
10616.00   21.65256500   1.26812768
10618.00   22.23027611   1.28832126
10620.00   21.46306992   1.28453207
10622.00   21.91594505   1.31544173
10624.00   20.47866058   1.33254158
10626.00   21.64941978   1.36966097
10628.00   24.01998711   1.40759230
10630.00   23.77384758   1.41993284
10632.00   22.71471214   1.41871798
10634.00   25.23476410   1.48342133
10636.00   25.26359558   1.52782452
10638.00   23.82341957   1.53387403
10640.00   23.13749123   1.53946435
10642.00   23.65311432   1.58815432
10644.00   25.04763794   1.61158812
10646.00   25.11205292   1.62974036
10648.00   25.69562531   1.66252971
10650.00   24.99690437   1.68054259
10652.00   25.48664665   1.71346462
10654.00   25.85088539   1.74362373
10656.00   26.14588356   1.75478137
10658.00   26.40802574   1.75396299
10660.00   26.55708885   1.77787066
10662.00   25.95637703   1.74838865
10664.00   25.24699974   1.74637318
10666.00   25.10114861   1.75633895
10668.00   25.65850830   1.77406752
10670.00   26.39429474   1.78783453
10672.00   26.35197067   1.77606213
10674.00   25.92599106   1.76438749
10676.00   23.58628845   1.76461756
10678.00   21.32438278   1.77589083
10680.00   22.68491173   1.78429520
